File: data_plotting/tga/Ag1_8_31_16_%vtemp.txt
Filename:	D:\Users\Thermal_Users\LeBlanc\Ag1_8_31_16.tg1d

Temperature (°C)	Weight % (%)
26.213	99.9765
26.579	99.9772
26.957	99.9747
27.227	99.9683
27.401	99.9603
27.514	99.9506
27.590	99.9408
27.642	99.9299
27.679	99.9190
27.706	99.9074
27.727	99.8962
27.742	99.8846
27.755	99.8730
27.765	99.8616
27.773	99.8508
27.780	99.8393
27.835	99.8290
29.218	99.8378
32.419	99.8394
16.207	99.8035
23.314	99.7421
37.765	99.6643
50.116	99.5781
60.919	99.4881
70.785	99.3967
80.010	99.3038
88.365	99.2045
94.338	99.0971
98.186	98.9863
100.742	98.8746
102.577	98.7604
104.007	98.6346
105.100	98.4393
105.955	98.2958
106.635	98.1839
107.183	98.0807
107.627	97.9798
108.007	97.8812
108.325	97.7842
108.573	97.6880
108.782	97.5930
108.975	97.5002
109.166	97.4083
109.316	97.3170
109.428	97.2261
109.518	97.1359
109.585	97.0469
109.640	96.9599
109.691	96.8737
109.726	96.7883
109.748	96.7037
109.770	96.6200
109.787	96.5371
109.802	96.4550
109.826	96.3749
109.833	96.2958
109.831	96.2172
109.815	96.1398
109.806	96.0630
109.818	95.9870
109.832	95.9119
109.837	95.8384
109.833	95.7658
109.836	95.6943
109.824	95.6233
109.827	95.5525
109.837	95.4815
109.825	95.4114
109.851	95.3435
109.857	95.2757
109.858	95.2098
109.855	95.1448
109.841	95.0811
109.834	95.0174
109.834	94.9533
109.841	94.8905
109.833	94.8286
109.833	94.7682
109.823	94.7088
109.814	94.6503
109.814	94.5923
109.806	94.5351
109.804	94.4786
109.824	94.4228
109.823	94.3680
109.822	94.3140
109.801	94.2608
109.800	94.2079
109.793	94.1565
109.785	94.1056
109.740	94.0559
109.744	94.0065
109.765	93.9579
109.774	93.9101
109.778	93.8632
109.776	93.8163
109.778	93.7711
109.769	93.7260
109.747	93.6819
109.751	93.6383
109.744	93.5958
109.743	93.5533
109.738	93.5119
109.750	93.4714
109.757	93.4310
109.754	93.3920
109.729	93.3538
109.667	93.3159
109.583	93.2789
109.512	93.2433
109.471	93.2082
109.463	93.1738
109.474	93.1404
109.531	93.1078
109.601	93.0757
109.631	93.0442
109.660	93.0131
109.679	92.9830
109.682	92.9536
109.690	92.9248
109.680	92.8971
109.660	92.8703
109.675	92.8436
109.663	92.8177
109.675	92.7927
109.679	92.7685
109.675	92.7448
109.674	92.7218
109.665	92.6993
109.668	92.6778
109.676	92.6572
109.656	92.6372
109.654	92.6175
109.651	92.5984
109.642	92.5800
109.646	92.5624
109.635	92.5452
109.624	92.5292
109.617	92.5122
109.600	92.4965
109.593	92.4816
109.594	92.4671
109.599	92.4531
109.596	92.4397
109.593	92.4268
109.580	92.4147
109.570	92.4031
109.569	92.3918
109.565	92.3807
109.557	92.3702
109.539	92.3600
109.516	92.3502
109.505	92.3418
109.493	92.3338
109.492	92.3259
109.474	92.3176
109.485	92.3098
109.490	92.3019
109.482	92.2950
109.468	92.2874
109.459	92.2805
109.445	92.2738
109.430	92.2675
109.419	92.2607
109.410	92.2547
109.400	92.2488
109.366	92.2433
109.330	92.2376
109.299	92.2321
109.282	92.2267
109.270	92.2216
109.255	92.2167
109.272	92.2117
109.303	92.2071
109.328	92.2025
109.334	92.1982
109.342	92.1944
109.352	92.1900
109.356	92.1860
109.359	92.1814
109.364	92.1777
109.373	92.1743
109.387	92.1701
109.379	92.1664
109.375	92.1632
109.385	92.1597
109.384	92.1565
109.354	92.1532
109.340	92.1501
109.338	92.1470
109.355	92.1439
109.341	92.1408
109.345	92.1379
109.348	92.1352
109.361	92.1323
109.353	92.1299
109.349	92.1270
109.359	92.1247
109.352	92.1220
109.338	92.1198
109.322	92.1174
109.313	92.1148
109.321	92.1123
109.296	92.1099
109.283	92.1078
109.276	92.1056
109.273	92.1037
109.262	92.1017
109.248	92.0996
109.250	92.0975
109.229	92.0957
109.212	92.0938
109.196	92.0920
109.176	92.0905
109.141	92.0880
109.137	92.0866
109.132	92.0845
109.157	92.0828
109.194	92.0817
109.223	92.0795
109.248	92.0778
109.246	92.0761
109.237	92.0744
109.232	92.0731
109.234	92.0712
109.233	92.0700
109.244	92.0685
109.249	92.0671
109.251	92.0656
109.248	92.0638
109.245	92.0625
109.236	92.0612
109.232	92.0601
109.239	92.0587
109.254	92.0576
109.255	92.0564
109.241	92.0550
109.233	92.0540
109.218	92.0525
109.215	92.0514
109.222	92.0499
109.238	92.0488
109.248	92.0475
109.253	92.0463
109.244	92.0452
109.256	92.0440
109.264	92.0430
109.261	92.0418
109.253	92.0412
109.249	92.0404
109.248	92.0392
109.762	92.0383
112.175	92.0383
116.447	92.0378
121.800	92.0368
127.798	92.0350
134.180	92.0322
140.821	92.0278
147.655	92.0224
154.578	92.0155
161.399	92.0067
168.109	91.9958
174.729	91.9819
181.315	91.9658
187.946	91.9472
194.378	91.9246
199.061	91.8979
201.822	91.8688
203.564	91.8387
204.798	91.8102
205.723	91.7824
206.445	91.7568
207.004	91.7326
207.448	91.7112
207.829	91.6915
208.144	91.6728
208.392	91.6556
208.590	91.6390
208.764	91.6241
208.911	91.6098
209.028	91.5960
209.138	91.5827
209.232	91.5699
209.302	91.5579
209.351	91.5458
209.383	91.5345
209.407	91.5237
209.432	91.5127
209.451	91.5024
209.478	91.4921
209.533	91.4820
209.585	91.4721
209.603	91.4624
209.598	91.4524
209.585	91.4428
209.578	91.4329
209.583	91.4231
209.567	91.4138
209.531	91.4045
209.520	91.3952
209.530	91.3861
209.530	91.3775
209.528	91.3688
209.518	91.3603
209.513	91.3524
209.543	91.3442
209.562	91.3364
209.570	91.3289
209.572	91.3216
209.599	91.3146
209.606	91.3079
209.601	91.3010
209.620	91.2943
209.632	91.2876
209.625	91.2816
209.621	91.2753
209.627	91.2698
209.631	91.2641
209.637	91.2586
209.628	91.2532
209.636	91.2478
209.640	91.2425
209.639	91.2375
209.580	91.2324
209.497	91.2276
209.464	91.2232
209.452	91.2188
209.440	91.2143
209.413	91.2101
209.391	91.2052
209.391	91.2013
209.406	91.1972
209.409	91.1932
209.413	91.1893
209.393	91.1860
209.358	91.1822
209.378	91.1780
209.419	91.1741
209.461	91.1709
209.483	91.1674
209.500	91.1636
209.507	91.1599
209.505	91.1564
209.506	91.1529
209.482	91.1496
209.444	91.1466
209.431	91.1430
209.429	91.1398
209.453	91.1365
209.478	91.1334
209.488	91.1304
209.461	91.1272
209.450	91.1240
209.477	91.1209
209.477	91.1181
209.484	91.1147
209.494	91.1116
209.504	91.1083
209.517	91.1059
209.532	91.1029
209.533	91.0997
209.515	91.0967
209.489	91.0938
209.470	91.0908
209.436	91.0879
209.410	91.0847
209.399	91.0821
209.399	91.0793
209.397	91.0764
209.393	91.0736
209.393	91.0706
209.392	91.0680
209.403	91.0656
209.444	91.0625
209.477	91.0595
209.488	91.0569
209.489	91.0540
209.485	91.0512
209.445	91.0487
209.408	91.0460
209.401	91.0435
209.399	91.0410
209.392	91.0384
209.387	91.0358
209.382	91.0333
209.381	91.0308
209.371	91.0283
209.361	91.0256
209.362	91.0234
209.366	91.0207
209.366	91.0183
209.352	91.0161
209.348	91.0135
209.346	91.0117
209.342	91.0091
209.346	91.0068
209.318	91.0043
209.303	91.0019
209.300	90.9996
209.292	90.9974
209.290	90.9951
209.293	90.9930
209.292	90.9906
209.300	90.9884
209.308	90.9861
209.330	90.9843
209.338	90.9820
209.324	90.9796
209.296	90.9777
209.277	90.9750
209.282	90.9733
209.287	90.9711
209.291	90.9690
209.276	90.9670
209.260	90.9647
209.242	90.9621
209.232	90.9605
209.210	90.9588
209.187	90.9567
209.186	90.9545
209.198	90.9526
209.226	90.9506
209.237	90.9490
209.235	90.9470
209.227	90.9451
209.225	90.9434
209.223	90.9413
209.141	90.9394
209.013	90.9375
208.947	90.9356
208.918	90.9336
208.901	90.9318
208.905	90.9302
208.901	90.9279
208.881	90.9259
208.869	90.9244
208.872	90.9223
208.854	90.9209
208.825	90.9192
208.785	90.9174
208.725	90.9155
208.669	90.9139
208.647	90.9125
208.668	90.9105
208.703	90.9088
208.707	90.9070
208.708	90.9052
208.716	90.9039
208.780	90.9021
208.903	90.9003
208.980	90.8988
209.023	90.8971
209.055	90.8954
209.071	90.8939
209.117	90.8923
209.141	90.8909
209.135	90.8886
209.150	90.8870
209.160	90.8855
209.141	90.8840
209.111	90.8828
209.088	90.8806
209.074	90.8788
209.057	90.8771
209.038	90.8751
209.051	90.8742
209.075	90.8725
209.095	90.8709
209.089	90.8693
209.054	90.8676
209.048	90.8661
209.043	90.8645
209.034	90.8631
209.025	90.8615
209.037	90.8599
209.060	90.8584
209.060	90.8567
209.051	90.8550
209.053	90.8535
209.051	90.8520
209.056	90.8507
209.057	90.8490
209.074	90.8474
209.093	90.8459
209.101	90.8446
209.086	90.8430
209.067	90.8412
209.051	90.8400
209.035	90.8386
209.047	90.8370
209.068	90.8355
209.078	90.8337
209.088	90.8323
209.094	90.8311
209.085	90.8296
209.084	90.8282
209.065	90.8268
209.047	90.8256
209.027	90.8239
209.004	90.8226
208.979	90.8207
208.956	90.8196
208.945	90.8180
208.947	90.8166
208.965	90.8155
208.972	90.8140
208.982	90.8123
208.981	90.8110
208.991	90.8094
209.001	90.8078
209.004	90.8061
208.972	90.8049
208.941	90.8036
208.944	90.8026
208.952	90.8011
208.966	90.7997
208.986	90.7985
208.989	90.7975
209.012	90.7958
209.072	90.7941
209.122	90.7928
209.156	90.7915
209.154	90.7900
209.149	90.7889
209.127	90.7876
209.073	90.7863
209.010	90.7848
208.983	90.7834
208.957	90.7818
208.949	90.7814
208.942	90.7798
208.996	90.7783
209.051	90.7767
209.089	90.7752
209.116	90.7742
209.123	90.7729
209.117	90.7714
209.123	90.7705
209.145	90.7692
209.146	90.7679
209.144	90.7664
209.136	90.7652
209.134	90.7639
209.152	90.7627
209.158	90.7614
209.156	90.7601
209.156	90.7586
209.159	90.7574
209.151	90.7559
209.135	90.7548
209.134	90.7534
209.105	90.7524
209.045	90.7512
209.005	90.7501
208.979	90.7484
208.967	90.7473
208.957	90.7460
208.944	90.7444
208.936	90.7434
208.931	90.7422
208.919	90.7408
208.918	90.7395
208.964	90.7382
208.977	90.7372
208.999	90.7362
209.050	90.7349
209.089	90.7338
209.112	90.7324
209.126	90.7308
209.140	90.7299
209.137	90.7287
209.139	90.7273
209.147	90.7260
209.162	90.7250
209.168	90.7239
209.178	90.7225
209.166	90.7213
209.151	90.7201
209.150	90.7191
209.148	90.7178
209.121	90.7164
209.110	90.7156
209.125	90.7144
209.128	90.7129
209.115	90.7126
209.095	90.7110
209.057	90.7097
209.046	90.7085
209.074	90.7069
209.106	90.7060
209.131	90.7051
209.148	90.7036
209.161	90.7023
209.166	90.7011
209.177	90.7000
209.187	90.6993
209.165	90.6980
209.157	90.6966
209.155	90.6954
209.172	90.6945
209.194	90.6936
209.196	90.6923
209.189	90.6913
209.157	90.6899
209.150	90.6882
209.150	90.6874
209.150	90.6868
209.145	90.6854
209.135	90.6844
209.121	90.6830
209.130	90.6820
209.146	90.6810
209.162	90.6798
209.171	90.6788
209.165	90.6776
209.189	90.6763
209.191	90.6752
209.153	90.6739
209.150	90.6731
209.150	90.6724
209.150	90.6712
209.150	90.6698
209.150	90.6685
209.150	90.6673
209.150	90.6659
209.150	90.6651
209.143	90.6640
209.149	90.6633
209.150	90.6621
209.150	90.6613
209.150	90.6602
209.150	90.6590
209.150	90.6579
209.129	90.6571
209.068	90.6560
209.026	90.6551
208.983	90.6541
208.982	90.6535
209.001	90.6518
209.001	90.6507
209.009	90.6495
209.030	90.6485
209.045	90.6479
209.049	90.6470
209.026	90.6459
209.013	90.6449
209.020	90.6441
209.040	90.6433
209.031	90.6419
209.021	90.6409
209.033	90.6399
209.048	90.6387
209.061	90.6379
209.086	90.6368
209.089	90.6357
209.070	90.6349
209.041	90.6339
209.017	90.6328
209.015	90.6319
209.038	90.6312
209.053	90.6300
209.054	90.6291
209.052	90.6280
209.049	90.6266
209.053	90.6263
209.048	90.6254
209.056	90.6242
209.060	90.6230
209.045	90.6221
209.022	90.6217
209.023	90.6204
209.019	90.6193
209.014	90.6185
209.001	90.6175
209.015	90.6164
209.042	90.6156
209.050	90.6148
209.059	90.6137
209.076	90.6128
209.075	90.6117
209.053	90.6108
209.043	90.6099
209.046	90.6091
209.053	90.6078
209.072	90.6071
209.084	90.6066
209.085	90.6051
209.099	90.6037
209.113	90.6032
209.114	90.6023
209.111	90.6011
209.092	90.6000
209.064	90.5991
209.062	90.5983
209.078	90.5970
209.082	90.5965
209.096	90.5957
209.124	90.5942
209.136	90.5939
209.143	90.5925
209.148	90.5918
209.142	90.5906
209.149	90.5904
209.144	90.5896
209.132	90.5884
209.100	90.5872
209.091	90.5865
209.101	90.5852
209.111	90.5843
209.124	90.5835
209.131	90.5824
209.132	90.5819
209.128	90.5814
209.118	90.5802
209.109	90.5793
209.306	90.5783
211.174	90.5773
214.979	90.5768
219.860	90.5755
225.305	90.5744
230.994	90.5727
236.811	90.5701
242.107	90.5667
246.753	90.5623
249.399	90.5571
250.921	90.5511
251.932	90.5453
252.684	90.5392
253.260	90.5337
253.713	90.5279
254.104	90.5226
254.433	90.5173
254.665	90.5124
254.888	90.5074
255.096	90.5028
255.228	90.4983
255.354	90.4938
255.470	90.4896
255.546	90.4853
255.596	90.4808
255.633	90.4766
255.667	90.4725
255.712	90.4683
255.765	90.4641
255.807	90.4607
255.842	90.4570
255.842	90.4530
255.882	90.4497
255.905	90.4460
255.942	90.4418
255.969	90.4384
256.016	90.4343
256.048	90.4314
256.044	90.4279
256.053	90.4248
256.112	90.4210
256.174	90.4173
256.209	90.4144
256.227	90.4109
256.231	90.4078
256.227	90.4042
256.212	90.4012
256.217	90.3981
256.250	90.3949
256.274	90.3918
256.262	90.3886
256.259	90.3859
256.280	90.3824
256.293	90.3797
256.303	90.3761
256.308	90.3738
256.318	90.3706
256.333	90.3679
256.346	90.3645
256.352	90.3617
256.354	90.3589
256.359	90.3561
256.357	90.3536
256.352	90.3509
256.342	90.3481
256.331	90.3453
256.335	90.3427
256.343	90.3398
256.341	90.3370
256.339	90.3344
256.333	90.3314
256.338	90.3296
256.332	90.3266
256.324	90.3237
256.300	90.3212
256.278	90.3185
256.287	90.3161
256.293	90.3137
256.299	90.3114
256.307	90.3087
256.311	90.3065
256.312	90.3043
256.315	90.3016
256.303	90.2992
256.286	90.2971
256.288	90.2945
256.282	90.2922
256.268	90.2900
256.255	90.2875
256.233	90.2852
256.199	90.2830
256.184	90.2809
256.178	90.2783
256.200	90.2762
256.232	90.2741
256.243	90.2714
256.252	90.2697
256.264	90.2678
256.270	90.2657
256.275	90.2633
256.278	90.2614
256.282	90.2594
256.288	90.2574
256.284	90.2555
256.272	90.2532
256.247	90.2515
256.222	90.2489
256.197	90.2470
256.179	90.2453
256.185	90.2433
256.213	90.2412
256.221	90.2396
256.211	90.2374
256.213	90.2354
256.232	90.2337
256.242	90.2318
256.245	90.2298
256.245	90.2280
256.252	90.2260
256.261	90.2245
256.266	90.2223
256.265	90.2204
256.257	90.2186
256.238	90.2168
256.234	90.2151
256.238	90.2132
256.243	90.2114
256.231	90.2094
256.204	90.2080
256.181	90.2061
256.169	90.2043
256.184	90.2027
256.202	90.2013
256.189	90.1994
256.159	90.1976
256.148	90.1958
256.155	90.1944
256.180	90.1928
256.188	90.1909
256.179	90.1889
256.162	90.1875
256.165	90.1857
256.178	90.1843
256.185	90.1827
256.174	90.1812
256.179	90.1796
256.193	90.1777
256.195	90.1760
256.192	90.1748
256.185	90.1730
256.163	90.1712
256.151	90.1697
256.159	90.1682
256.160	90.1662
256.158	90.1651
256.157	90.1636
256.150	90.1621
256.143	90.1604
256.145	90.1588
256.145	90.1575
256.145	90.1560
256.146	90.1546
256.143	90.1531
256.136	90.1519
256.135	90.1505
256.131	90.1490
256.131	90.1474
256.127	90.1459
256.125	90.1442
256.125	90.1427
256.122	90.1419
256.115	90.1410
256.108	90.1388
256.124	90.1374
256.140	90.1362
256.123	90.1349
256.078	90.1339
256.054	90.1323
256.061	90.1310
256.058	90.1297
256.094	90.1284
256.122	90.1269
256.122	90.1255
256.127	90.1244
256.121	90.1228
256.073	90.1214
256.013	90.1201
255.996	90.1184
255.986	90.1174
256.032	90.1161
256.075	90.1145
256.094	90.1134
256.102	90.1119
256.105	90.1103
256.097	90.1096
256.080	90.1081
256.080	90.1062
256.091	90.1054
256.085	90.1040
256.073	90.1030
256.072	90.1017
256.074	90.1008
256.076	90.0995
256.082	90.0983
256.093	90.0967
256.097	90.0955
256.083	90.0944
256.065	90.0932
256.067	90.0921
256.058	90.0908
256.055	90.0895
256.046	90.0883
256.016	90.0874
256.033	90.0859
256.039	90.0846
256.038	90.0836
256.049	90.0824
256.067	90.0815
256.072	90.0800
256.077	90.0792
256.084	90.0778
256.083	90.0768
256.072	90.0755
256.036	90.0744
256.019	90.0732
256.017	90.0721
256.009	90.0710
256.005	90.0695
255.998	90.0686
256.000	90.0675
256.028	90.0667
256.048	90.0654
256.053	90.0642
256.056	90.0632
256.064	90.0616
256.067	90.0608
256.061	90.0598
256.053	90.0585
256.025	90.0575
255.979	90.0566
255.945	90.0548
255.932	90.0540
255.930	90.0531
255.869	90.0519
255.786	90.0512
255.787	90.0495
255.788	90.0485
255.736	90.0472
255.695	90.0460
255.660	90.0451
255.637	90.0439
255.658	90.0432
255.726	90.0419
255.725	90.0415
255.694	90.0402
255.690	90.0390
255.670	90.0376
255.657	90.0371
255.673	90.0354
255.707	90.0342
255.751	90.0329
255.809	90.0319
255.858	90.0310
255.867	90.0303
255.864	90.0292
255.894	90.0279
255.908	90.0267
255.900	90.0251
255.912	90.0243
255.937	90.0234
255.939	90.0223
255.939	90.0208
255.933	90.0202
255.901	90.0190
255.893	90.0180
255.870	90.0165
255.858	90.0156
255.847	90.0144
255.854	90.0130
255.901	90.0122
255.917	90.0116
255.917	90.0103
255.904	90.0092
255.908	90.0081
255.893	90.0069
255.857	90.0053
255.839	90.0045
255.835	90.0036
255.825	90.0025
255.812	90.0016
255.791	90.0004
255.769	89.9988
255.733	89.9983
255.719	89.9968
255.747	89.9960
255.777	89.9949
255.777	89.9938
255.792	89.9927
255.820	89.9915
255.831	89.9905
255.842	89.9892
255.860	89.9882
255.854	89.9869
255.840	89.9859
255.834	89.9846
255.857	89.9841
255.879	89.9831
255.894	89.9817
255.905	89.9809
255.916	89.9792
255.921	89.9776
255.964	89.9769
255.983	89.9759
255.966	89.9746
255.954	89.9737
255.955	89.9726
255.953	89.9714
255.923	89.9698
255.898	89.9690
255.904	89.9678
255.911	89.9667
255.920	89.9654
255.916	89.9641
255.916	89.9632
255.916	89.9621
255.916	89.9606
255.902	89.9595
255.896	89.9588
255.889	89.9573
255.882	89.9564
255.877	89.9550
255.873	89.9532
255.876	89.9526
255.876	89.9517
255.855	89.9502
255.832	89.9490
255.860	89.9479
255.894	89.9467
255.927	89.9448
255.957	89.9436
255.969	89.9426
255.970	89.9419
255.959	89.9405
255.930	89.9390
255.904	89.9381
255.921	89.9369
255.977	89.9358
255.982	89.9344
255.976	89.9332
255.983	89.9320
255.995	89.9309
255.995	89.9298
255.999	89.9282
256.006	89.9271
256.006	89.9263
256.005	89.9248
256.007	89.9235
256.008	89.9221
255.987	89.9210
255.969	89.9199
255.965	89.9184
255.986	89.9171
255.979	89.9161
255.966	89.9148
255.981	89.9136
255.974	89.9125
255.948	89.9112
255.963	89.9099
255.978	89.9083
255.968	89.9070
255.949	89.9050
255.940	89.9041
255.963	89.9027
255.982	89.9017
255.968	89.9003
255.965	89.8990
255.972	89.8976
255.964	89.8963
255.960	89.8954
255.965	89.8944
255.964	89.8931
255.944	89.8912
255.938	89.8896
255.935	89.8885
255.934	89.8868
255.959	89.8858
255.993	89.8849
256.014	89.8834
256.016	89.8821
256.010	89.8809
256.004	89.8795
256.008	89.8781
256.018	89.8767
256.035	89.8753
256.039	89.8739
256.049	89.8726
256.010	89.8712
255.979	89.8703
255.967	89.8687
255.945	89.8677
255.924	89.8660
255.863	89.8646
255.854	89.8632
255.915	89.8619
255.921	89.8604
255.902	89.8590
255.897	89.8581
255.890	89.8569
255.887	89.8556
255.877	89.8541
255.877	89.8530
255.889	89.8516
255.887	89.8502
255.908	89.8489
255.917	89.8476
255.894	89.8461
255.844	89.8445
255.856	89.8437
255.886	89.8422
255.899	89.8410
255.897	89.8397
255.887	89.8384
255.880	89.8367
255.875	89.8353
255.876	89.8336
255.890	89.8331
255.924	89.8315
255.949	89.8299
255.965	89.8286
255.986	89.8273
256.011	89.8259
256.014	89.8246
255.985	89.8233
255.969	89.8221
255.936	89.8201
255.922	89.8188
255.885	89.8175
255.883	89.8160
255.917	89.8148
255.926	89.8135
255.921	89.8119
255.934	89.8105
255.968	89.8091
255.975	89.8080
255.993	89.8064
256.012	89.8049
256.020	89.8035
256.016	89.8022
256.008	89.8009
256.005	89.7996
255.987	89.7981
255.989	89.7967
256.004	89.7952
256.012	89.7942
256.018	89.7927
256.007	89.7914
255.994	89.7901
255.988	89.7896