File: data_plotting/tga/Ag1_8_31_16_%vtime.txt
Filename:	D:\Users\Thermal_Users\LeBlanc\Ag1_8_31_16.tg1d

Time (min)	Weight % (%)
0.000	99.9765
6.667e-002	99.9772
0.133	99.9747
0.200	99.9683
0.267	99.9603
0.333	99.9506
0.400	99.9408
0.467	99.9299
0.533	99.9190
0.600	99.9074
0.667	99.8962
0.733	99.8846
0.800	99.8730
0.867	99.8616
0.933	99.8508
1.000	99.8393
1.067	99.8290
1.133	99.8378
1.200	99.8394
1.267	99.8035
1.333	99.7421
1.400	99.6643
1.467	99.5781
1.533	99.4881
1.600	99.3967
1.667	99.3038
1.733	99.2045
1.800	99.0971
1.867	98.9863
1.933	98.8746
2.000	98.7604
2.067	98.6346
2.133	98.4393
2.200	98.2958
2.267	98.1839
2.333	98.0807
2.400	97.9798
2.467	97.8812
2.533	97.7842
2.600	97.6880
2.667	97.5930
2.733	97.5002
2.800	97.4083
2.867	97.3170
2.933	97.2261
3.000	97.1359
3.067	97.0469
3.133	96.9599
3.200	96.8737
3.267	96.7883
3.333	96.7037
3.400	96.6200
3.467	96.5371
3.533	96.4550
3.600	96.3749
3.667	96.2958
3.733	96.2172
3.800	96.1398
3.867	96.0630
3.933	95.9870
4.000	95.9119
4.067	95.8384
4.133	95.7658
4.200	95.6943
4.267	95.6233
4.333	95.5525
4.400	95.4815
4.467	95.4114
4.533	95.3435
4.600	95.2757
4.667	95.2098
4.733	95.1448
4.800	95.0811
4.867	95.0174
4.933	94.9533
5.000	94.8905
5.067	94.8286
5.133	94.7682
5.200	94.7088
5.267	94.6503
5.333	94.5923
5.400	94.5351
5.467	94.4786
5.533	94.4228
5.600	94.3680
5.667	94.3140
5.733	94.2608
5.800	94.2079
5.867	94.1565
5.933	94.1056
6.000	94.0559
6.067	94.0065
6.133	93.9579
6.200	93.9101
6.267	93.8632
6.333	93.8163
6.400	93.7711
6.467	93.7260
6.533	93.6819
6.600	93.6383
6.667	93.5958
6.733	93.5533
6.800	93.5119
6.867	93.4714
6.933	93.4310
7.000	93.3920
7.067	93.3538
7.133	93.3159
7.200	93.2789
7.267	93.2433
7.333	93.2082
7.400	93.1738
7.467	93.1404
7.533	93.1078
7.600	93.0757
7.667	93.0442
7.733	93.0131
7.800	92.9830
7.867	92.9536
7.933	92.9248
8.000	92.8971
8.067	92.8703
8.133	92.8436
8.200	92.8177
8.267	92.7927
8.333	92.7685
8.400	92.7448
8.467	92.7218
8.533	92.6993
8.600	92.6778
8.667	92.6572
8.733	92.6372
8.800	92.6175
8.867	92.5984
8.933	92.5800
9.000	92.5624
9.067	92.5452
9.133	92.5292
9.200	92.5122
9.267	92.4965
9.333	92.4816
9.400	92.4671
9.467	92.4531
9.533	92.4397
9.600	92.4268
9.667	92.4147
9.733	92.4031
9.800	92.3918
9.867	92.3807
9.933	92.3702
10.000	92.3600
10.067	92.3502
10.133	92.3418
10.200	92.3338
10.267	92.3259
10.333	92.3176
10.400	92.3098
10.467	92.3019
10.533	92.2950
10.600	92.2874
10.667	92.2805
10.733	92.2738
10.800	92.2675
10.867	92.2607
10.933	92.2547
11.000	92.2488
11.067	92.2433
11.133	92.2376
11.200	92.2321
11.267	92.2267
11.333	92.2216
11.400	92.2167
11.467	92.2117
11.533	92.2071
11.600	92.2025
11.667	92.1982
11.733	92.1944
11.800	92.1900
11.867	92.1860
11.933	92.1814
12.000	92.1777
12.067	92.1743
12.133	92.1701
12.200	92.1664
12.267	92.1632
12.333	92.1597
12.400	92.1565
12.467	92.1532
12.533	92.1501
12.600	92.1470
12.667	92.1439
12.733	92.1408
12.800	92.1379
12.867	92.1352
12.933	92.1323
13.000	92.1299
13.067	92.1270
13.133	92.1247
13.200	92.1220
13.267	92.1198
13.333	92.1174
13.400	92.1148
13.467	92.1123
13.533	92.1099
13.600	92.1078
13.667	92.1056
13.733	92.1037
13.800	92.1017
13.867	92.0996
13.933	92.0975
14.000	92.0957
14.067	92.0938
14.133	92.0920
14.200	92.0905
14.267	92.0880
14.333	92.0866
14.400	92.0845
14.467	92.0828
14.533	92.0817
14.600	92.0795
14.667	92.0778
14.733	92.0761
14.800	92.0744
14.867	92.0731
14.933	92.0712
15.000	92.0700
15.067	92.0685
15.133	92.0671
15.200	92.0656
15.267	92.0638
15.333	92.0625
15.400	92.0612
15.467	92.0601
15.533	92.0587
15.600	92.0576
15.667	92.0564
15.733	92.0550
15.800	92.0540
15.867	92.0525
15.933	92.0514
16.000	92.0499
16.067	92.0488
16.133	92.0475
16.200	92.0463
16.267	92.0452
16.333	92.0440
16.400	92.0430
16.467	92.0418
16.533	92.0412
16.600	92.0404
16.667	92.0392
16.733	92.0383
16.800	92.0383
16.867	92.0378
16.933	92.0368
17.000	92.0350
17.067	92.0322
17.133	92.0278
17.200	92.0224
17.267	92.0155
17.333	92.0067
17.400	91.9958
17.467	91.9819
17.533	91.9658
17.600	91.9472
17.667	91.9246
17.733	91.8979
17.800	91.8688
17.867	91.8387
17.933	91.8102
18.000	91.7824
18.067	91.7568
18.133	91.7326
18.200	91.7112
18.267	91.6915
18.333	91.6728
18.400	91.6556
18.467	91.6390
18.533	91.6241
18.600	91.6098
18.667	91.5960
18.733	91.5827
18.800	91.5699
18.867	91.5579
18.933	91.5458
19.000	91.5345
19.067	91.5237
19.133	91.5127
19.200	91.5024
19.267	91.4921
19.333	91.4820
19.400	91.4721
19.467	91.4624
19.533	91.4524
19.600	91.4428
19.667	91.4329
19.733	91.4231
19.800	91.4138
19.867	91.4045
19.933	91.3952
20.000	91.3861
20.067	91.3775
20.133	91.3688
20.200	91.3603
20.267	91.3524
20.333	91.3442
20.400	91.3364
20.467	91.3289
20.533	91.3216
20.600	91.3146
20.667	91.3079
20.733	91.3010
20.800	91.2943
20.867	91.2876
20.933	91.2816
21.000	91.2753
21.067	91.2698
21.133	91.2641
21.200	91.2586
21.267	91.2532
21.333	91.2478
21.400	91.2425
21.467	91.2375
21.533	91.2324
21.600	91.2276
21.667	91.2232
21.733	91.2188
21.800	91.2143
21.867	91.2101
21.933	91.2052
22.000	91.2013
22.067	91.1972
22.133	91.1932
22.200	91.1893
22.267	91.1860
22.333	91.1822
22.400	91.1780
22.467	91.1741
22.533	91.1709
22.600	91.1674
22.667	91.1636
22.733	91.1599
22.800	91.1564
22.867	91.1529
22.933	91.1496
23.000	91.1466
23.067	91.1430
23.133	91.1398
23.200	91.1365
23.267	91.1334
23.333	91.1304
23.400	91.1272
23.467	91.1240
23.533	91.1209
23.600	91.1181
23.667	91.1147
23.733	91.1116
23.800	91.1083
23.867	91.1059
23.933	91.1029
24.000	91.0997
24.067	91.0967
24.133	91.0938
24.200	91.0908
24.267	91.0879
24.333	91.0847
24.400	91.0821
24.467	91.0793
24.533	91.0764
24.600	91.0736
24.667	91.0706
24.733	91.0680
24.800	91.0656
24.867	91.0625
24.933	91.0595
25.000	91.0569
25.067	91.0540
25.133	91.0512
25.200	91.0487
25.267	91.0460
25.333	91.0435
25.400	91.0410
25.467	91.0384
25.533	91.0358
25.600	91.0333
25.667	91.0308
25.733	91.0283
25.800	91.0256
25.867	91.0234
25.933	91.0207
26.000	91.0183
26.067	91.0161
26.133	91.0135
26.200	91.0117
26.267	91.0091
26.333	91.0068
26.400	91.0043
26.467	91.0019
26.533	90.9996
26.600	90.9974
26.667	90.9951
26.733	90.9930
26.800	90.9906
26.867	90.9884
26.933	90.9861
27.000	90.9843
27.067	90.9820
27.133	90.9796
27.200	90.9777
27.267	90.9750
27.333	90.9733
27.400	90.9711
27.467	90.9690
27.533	90.9670
27.600	90.9647
27.667	90.9621
27.733	90.9605
27.800	90.9588
27.867	90.9567
27.933	90.9545
28.000	90.9526
28.067	90.9506
28.133	90.9490
28.200	90.9470
28.267	90.9451
28.333	90.9434
28.400	90.9413
28.467	90.9394
28.533	90.9375
28.600	90.9356
28.667	90.9336
28.733	90.9318
28.800	90.9302
28.867	90.9279
28.933	90.9259
29.000	90.9244
29.067	90.9223
29.133	90.9209
29.200	90.9192
29.267	90.9174
29.333	90.9155
29.400	90.9139
29.467	90.9125
29.533	90.9105
29.600	90.9088
29.667	90.9070
29.733	90.9052
29.800	90.9039
29.867	90.9021
29.933	90.9003
30.000	90.8988
30.067	90.8971
30.133	90.8954
30.200	90.8939
30.267	90.8923
30.333	90.8909
30.400	90.8886
30.467	90.8870
30.533	90.8855
30.600	90.8840
30.667	90.8828
30.733	90.8806
30.800	90.8788
30.867	90.8771
30.933	90.8751
31.000	90.8742
31.067	90.8725
31.133	90.8709
31.200	90.8693
31.267	90.8676
31.333	90.8661
31.400	90.8645
31.467	90.8631
31.533	90.8615
31.600	90.8599
31.667	90.8584
31.733	90.8567
31.800	90.8550
31.867	90.8535
31.933	90.8520
32.000	90.8507
32.067	90.8490
32.133	90.8474
32.200	90.8459
32.267	90.8446
32.333	90.8430
32.400	90.8412
32.467	90.8400
32.533	90.8386
32.600	90.8370
32.667	90.8355
32.733	90.8337
32.800	90.8323
32.867	90.8311
32.933	90.8296
33.000	90.8282
33.067	90.8268
33.133	90.8256
33.200	90.8239
33.267	90.8226
33.333	90.8207
33.400	90.8196
33.467	90.8180
33.533	90.8166
33.600	90.8155
33.667	90.8140
33.733	90.8123
33.800	90.8110
33.867	90.8094
33.933	90.8078
34.000	90.8061
34.067	90.8049
34.133	90.8036
34.200	90.8026
34.267	90.8011
34.333	90.7997
34.400	90.7985
34.467	90.7975
34.533	90.7958
34.600	90.7941
34.667	90.7928
34.733	90.7915
34.800	90.7900
34.867	90.7889
34.933	90.7876
35.000	90.7863
35.067	90.7848
35.133	90.7834
35.200	90.7818
35.267	90.7814
35.333	90.7798
35.400	90.7783
35.467	90.7767
35.533	90.7752
35.600	90.7742
35.667	90.7729
35.733	90.7714
35.800	90.7705
35.867	90.7692
35.933	90.7679
36.000	90.7664
36.067	90.7652
36.133	90.7639
36.200	90.7627
36.267	90.7614
36.333	90.7601
36.400	90.7586
36.467	90.7574
36.533	90.7559
36.600	90.7548
36.667	90.7534
36.733	90.7524
36.800	90.7512
36.867	90.7501
36.933	90.7484
37.000	90.7473
37.067	90.7460
37.133	90.7444
37.200	90.7434
37.267	90.7422
37.333	90.7408
37.400	90.7395
37.467	90.7382
37.533	90.7372
37.600	90.7362
37.667	90.7349
37.733	90.7338
37.800	90.7324
37.867	90.7308
37.933	90.7299
38.000	90.7287
38.067	90.7273
38.133	90.7260
38.200	90.7250
38.267	90.7239
38.333	90.7225
38.400	90.7213
38.467	90.7201
38.533	90.7191
38.600	90.7178
38.667	90.7164
38.733	90.7156
38.800	90.7144
38.867	90.7129
38.933	90.7126
39.000	90.7110
39.067	90.7097
39.133	90.7085
39.200	90.7069
39.267	90.7060
39.333	90.7051
39.400	90.7036
39.467	90.7023
39.533	90.7011
39.600	90.7000
39.667	90.6993
39.733	90.6980
39.800	90.6966
39.867	90.6954
39.933	90.6945
40.000	90.6936
40.067	90.6923
40.133	90.6913
40.200	90.6899
40.267	90.6882
40.333	90.6874
40.400	90.6868
40.467	90.6854
40.533	90.6844
40.600	90.6830
40.667	90.6820
40.733	90.6810
40.800	90.6798
40.867	90.6788
40.933	90.6776
41.000	90.6763
41.067	90.6752
41.133	90.6739
41.200	90.6731
41.267	90.6724
41.333	90.6712
41.400	90.6698
41.467	90.6685
41.533	90.6673
41.600	90.6659
41.667	90.6651
41.733	90.6640
41.800	90.6633
41.867	90.6621
41.933	90.6613
42.000	90.6602
42.067	90.6590
42.133	90.6579
42.200	90.6571
42.267	90.6560
42.333	90.6551
42.400	90.6541
42.467	90.6535
42.533	90.6518
42.600	90.6507
42.667	90.6495
42.733	90.6485
42.800	90.6479
42.867	90.6470
42.933	90.6459
43.000	90.6449
43.067	90.6441
43.133	90.6433
43.200	90.6419
43.267	90.6409
43.333	90.6399
43.400	90.6387
43.467	90.6379
43.533	90.6368
43.600	90.6357
43.667	90.6349
43.733	90.6339
43.800	90.6328
43.867	90.6319
43.933	90.6312
44.000	90.6300
44.067	90.6291
44.133	90.6280
44.200	90.6266
44.267	90.6263
44.333	90.6254
44.400	90.6242
44.467	90.6230
44.533	90.6221
44.600	90.6217
44.667	90.6204
44.733	90.6193
44.800	90.6185
44.867	90.6175
44.933	90.6164
45.000	90.6156
45.067	90.6148
45.133	90.6137
45.200	90.6128
45.267	90.6117
45.333	90.6108
45.400	90.6099
45.467	90.6091
45.533	90.6078
45.600	90.6071
45.667	90.6066
45.733	90.6051
45.800	90.6037
45.867	90.6032
45.933	90.6023
46.000	90.6011
46.067	90.6000
46.133	90.5991
46.200	90.5983
46.267	90.5970
46.333	90.5965
46.400	90.5957
46.467	90.5942
46.533	90.5939
46.600	90.5925
46.667	90.5918
46.733	90.5906
46.800	90.5904
46.867	90.5896
46.933	90.5884
47.000	90.5872
47.067	90.5865
47.133	90.5852
47.200	90.5843
47.267	90.5835
47.333	90.5824
47.400	90.5819
47.467	90.5814
47.533	90.5802
47.600	90.5793
47.667	90.5783
47.733	90.5773
47.800	90.5768
47.867	90.5755
47.933	90.5744
48.000	90.5727
48.067	90.5701
48.133	90.5667
48.200	90.5623
48.267	90.5571
48.333	90.5511
48.400	90.5453
48.467	90.5392
48.533	90.5337
48.600	90.5279
48.667	90.5226
48.733	90.5173
48.800	90.5124
48.867	90.5074
48.933	90.5028
49.000	90.4983
49.067	90.4938
49.133	90.4896
49.200	90.4853
49.267	90.4808
49.333	90.4766
49.400	90.4725
49.467	90.4683
49.533	90.4641
49.600	90.4607
49.667	90.4570
49.733	90.4530
49.800	90.4497
49.867	90.4460
49.933	90.4418
50.000	90.4384
50.067	90.4343
50.133	90.4314
50.200	90.4279
50.267	90.4248
50.333	90.4210
50.400	90.4173
50.467	90.4144
50.533	90.4109
50.600	90.4078
50.667	90.4042
50.733	90.4012
50.800	90.3981
50.867	90.3949
50.933	90.3918
51.000	90.3886
51.067	90.3859
51.133	90.3824
51.200	90.3797
51.267	90.3761
51.333	90.3738
51.400	90.3706
51.467	90.3679
51.533	90.3645
51.600	90.3617
51.667	90.3589
51.733	90.3561
51.800	90.3536
51.867	90.3509
51.933	90.3481
52.000	90.3453
52.067	90.3427
52.133	90.3398
52.200	90.3370
52.267	90.3344
52.333	90.3314
52.400	90.3296
52.467	90.3266
52.533	90.3237
52.600	90.3212
52.667	90.3185
52.733	90.3161
52.800	90.3137
52.867	90.3114
52.933	90.3087
53.000	90.3065
53.067	90.3043
53.133	90.3016
53.200	90.2992
53.267	90.2971
53.333	90.2945
53.400	90.2922
53.467	90.2900
53.533	90.2875
53.600	90.2852
53.667	90.2830
53.733	90.2809
53.800	90.2783
53.867	90.2762
53.933	90.2741
54.000	90.2714
54.067	90.2697
54.133	90.2678
54.200	90.2657
54.267	90.2633
54.333	90.2614
54.400	90.2594
54.467	90.2574
54.533	90.2555
54.600	90.2532
54.667	90.2515
54.733	90.2489
54.800	90.2470
54.867	90.2453
54.933	90.2433
55.000	90.2412
55.067	90.2396
55.133	90.2374
55.200	90.2354
55.267	90.2337
55.333	90.2318
55.400	90.2298
55.467	90.2280
55.533	90.2260
55.600	90.2245
55.667	90.2223
55.733	90.2204
55.800	90.2186
55.867	90.2168
55.933	90.2151
56.000	90.2132
56.067	90.2114
56.133	90.2094
56.200	90.2080
56.267	90.2061
56.333	90.2043
56.400	90.2027
56.467	90.2013
56.533	90.1994
56.600	90.1976
56.667	90.1958
56.733	90.1944
56.800	90.1928
56.867	90.1909
56.933	90.1889
57.000	90.1875
57.067	90.1857
57.133	90.1843
57.200	90.1827
57.267	90.1812
57.333	90.1796
57.400	90.1777
57.467	90.1760
57.533	90.1748
57.600	90.1730
57.667	90.1712
57.733	90.1697
57.800	90.1682
57.867	90.1662
57.933	90.1651
58.000	90.1636
58.067	90.1621
58.133	90.1604
58.200	90.1588
58.267	90.1575
58.333	90.1560
58.400	90.1546
58.467	90.1531
58.533	90.1519
58.600	90.1505
58.667	90.1490
58.733	90.1474
58.800	90.1459
58.867	90.1442
58.933	90.1427
59.000	90.1419
59.067	90.1410
59.133	90.1388
59.200	90.1374
59.267	90.1362
59.333	90.1349
59.400	90.1339
59.467	90.1323
59.533	90.1310
59.600	90.1297
59.667	90.1284
59.733	90.1269
59.800	90.1255
59.867	90.1244
59.933	90.1228
60.000	90.1214
60.067	90.1201
60.133	90.1184
60.200	90.1174
60.267	90.1161
60.333	90.1145
60.400	90.1134
60.467	90.1119
60.533	90.1103
60.600	90.1096
60.667	90.1081
60.733	90.1062
60.800	90.1054
60.867	90.1040
60.933	90.1030
61.000	90.1017
61.067	90.1008
61.133	90.0995
61.200	90.0983
61.267	90.0967
61.333	90.0955
61.400	90.0944
61.467	90.0932
61.533	90.0921
61.600	90.0908
61.667	90.0895
61.733	90.0883
61.800	90.0874
61.867	90.0859
61.933	90.0846
62.000	90.0836
62.067	90.0824
62.133	90.0815
62.200	90.0800
62.267	90.0792
62.333	90.0778
62.400	90.0768
62.467	90.0755
62.533	90.0744
62.600	90.0732
62.667	90.0721
62.733	90.0710
62.800	90.0695
62.867	90.0686
62.933	90.0675
63.000	90.0667
63.067	90.0654
63.133	90.0642
63.200	90.0632
63.267	90.0616
63.333	90.0608
63.400	90.0598
63.467	90.0585
63.533	90.0575
63.600	90.0566
63.667	90.0548
63.733	90.0540
63.800	90.0531
63.867	90.0519
63.933	90.0512
64.000	90.0495
64.067	90.0485
64.133	90.0472
64.200	90.0460
64.267	90.0451
64.333	90.0439
64.400	90.0432
64.467	90.0419
64.533	90.0415
64.600	90.0402
64.667	90.0390
64.733	90.0376
64.800	90.0371
64.867	90.0354
64.933	90.0342
65.000	90.0329
65.067	90.0319
65.133	90.0310
65.200	90.0303
65.267	90.0292
65.333	90.0279
65.400	90.0267
65.467	90.0251
65.533	90.0243
65.600	90.0234
65.667	90.0223
65.733	90.0208
65.800	90.0202
65.867	90.0190
65.933	90.0180
66.000	90.0165
66.067	90.0156
66.133	90.0144
66.200	90.0130
66.267	90.0122
66.333	90.0116
66.400	90.0103
66.467	90.0092
66.533	90.0081
66.600	90.0069
66.667	90.0053
66.733	90.0045
66.800	90.0036
66.867	90.0025
66.933	90.0016
67.000	90.0004
67.067	89.9988
67.133	89.9983
67.200	89.9968
67.267	89.9960
67.333	89.9949
67.400	89.9938
67.467	89.9927
67.533	89.9915
67.600	89.9905
67.667	89.9892
67.733	89.9882
67.800	89.9869
67.867	89.9859
67.933	89.9846
68.000	89.9841
68.067	89.9831
68.133	89.9817
68.200	89.9809
68.267	89.9792
68.333	89.9776
68.400	89.9769
68.467	89.9759
68.533	89.9746
68.600	89.9737
68.667	89.9726
68.733	89.9714
68.800	89.9698
68.867	89.9690
68.933	89.9678
69.000	89.9667
69.067	89.9654
69.133	89.9641
69.200	89.9632
69.267	89.9621
69.333	89.9606
69.400	89.9595
69.467	89.9588
69.533	89.9573
69.600	89.9564
69.667	89.9550
69.733	89.9532
69.800	89.9526
69.867	89.9517
69.933	89.9502
70.000	89.9490
70.067	89.9479
70.133	89.9467
70.200	89.9448
70.267	89.9436
70.333	89.9426
70.400	89.9419
70.467	89.9405
70.533	89.9390
70.600	89.9381
70.667	89.9369
70.733	89.9358
70.800	89.9344
70.867	89.9332
70.933	89.9320
71.000	89.9309
71.067	89.9298
71.133	89.9282
71.200	89.9271
71.267	89.9263
71.333	89.9248
71.400	89.9235
71.467	89.9221
71.533	89.9210
71.600	89.9199
71.667	89.9184
71.733	89.9171
71.800	89.9161
71.867	89.9148
71.933	89.9136
72.000	89.9125
72.067	89.9112
72.133	89.9099
72.200	89.9083
72.267	89.9070
72.333	89.9050
72.400	89.9041
72.467	89.9027
72.533	89.9017
72.600	89.9003
72.667	89.8990
72.733	89.8976
72.800	89.8963
72.867	89.8954
72.933	89.8944
73.000	89.8931
73.067	89.8912
73.133	89.8896
73.200	89.8885
73.267	89.8868
73.333	89.8858
73.400	89.8849
73.467	89.8834
73.533	89.8821
73.600	89.8809
73.667	89.8795
73.733	89.8781
73.800	89.8767
73.867	89.8753
73.933	89.8739
74.000	89.8726
74.067	89.8712
74.133	89.8703
74.200	89.8687
74.267	89.8677
74.333	89.8660
74.400	89.8646
74.467	89.8632
74.533	89.8619
74.600	89.8604
74.667	89.8590
74.733	89.8581
74.800	89.8569
74.867	89.8556
74.933	89.8541
75.000	89.8530
75.067	89.8516
75.133	89.8502
75.200	89.8489
75.267	89.8476
75.333	89.8461
75.400	89.8445
75.467	89.8437
75.533	89.8422
75.600	89.8410
75.667	89.8397
75.733	89.8384
75.800	89.8367
75.867	89.8353
75.933	89.8336
76.000	89.8331
76.067	89.8315
76.133	89.8299
76.200	89.8286
76.267	89.8273
76.333	89.8259
76.400	89.8246
76.467	89.8233
76.533	89.8221
76.600	89.8201
76.667	89.8188
76.733	89.8175
76.800	89.8160
76.867	89.8148
76.933	89.8135
77.000	89.8119
77.067	89.8105
77.133	89.8091
77.200	89.8080
77.267	89.8064
77.333	89.8049
77.400	89.8035
77.467	89.8022
77.533	89.8009
77.600	89.7996
77.667	89.7981
77.733	89.7967
77.800	89.7952
77.867	89.7942
77.933	89.7927
78.000	89.7914
78.067	89.7901
78.083	89.7896