File: data_plotting/tga/Ag1_8_9_16.txt
Filename:	D:\Users\Thermal_Users\LeBlanc\Ag1 ink 8_9_16.tg1d

Temperature (°C)	Weight (mg)
86.391	112.2734
92.869	112.1706
97.484	112.0571
100.444	111.9448
102.454	111.8411
103.954	111.7478
105.099	111.6606
106.012	111.5769
106.717	111.4951
107.281	111.4148
107.735	111.3342
108.100	111.2536
108.391	111.1735
108.635	111.0937
108.823	111.0152
108.974	110.9389
109.095	110.8627
109.199	110.7871
109.285	110.7118
109.342	110.6366
109.377	110.5618
109.398	110.4874
109.461	110.4139
109.516	110.3418
109.553	110.2689
109.569	110.1943
109.575	110.1231
109.594	110.0518
109.600	109.9805
109.599	109.9075
109.624	109.8361
109.613	109.7665
109.632	109.6987
109.648	109.6312
109.664	109.5627
109.668	109.4947
109.677	109.4276
109.679	109.3616
109.683	109.2962
109.687	109.2319
109.694	109.1684
109.697	109.1050
109.696	109.0423
109.699	108.9731
109.696	108.9078
109.692	108.8467
109.687	108.7870
109.684	108.7276
109.684	108.6692
109.688	108.6120
109.683	108.5544
109.667	108.4978
109.643	108.4418
109.636	108.3865
109.635	108.3320
109.624	108.2776
109.599	108.2237
109.598	108.1706
109.603	108.1183
109.590	108.0668
109.596	108.0151
109.602	107.9642
109.613	107.9136
109.617	107.8638
109.616	107.8146
109.608	107.7658
109.596	107.7174
109.576	107.6692
109.571	107.6201
109.574	107.5766
109.571	107.5393
109.574	107.4951
109.576	107.4498
109.573	107.4047
109.560	107.3598
109.533	107.3153
109.514	107.2715
109.527	107.2283
109.524	107.1855
109.521	107.1431
109.519	107.1009
109.522	107.0593
109.512	107.0185
109.513	106.9785
109.528	106.9379
109.534	106.8982
109.534	106.8590
109.533	106.8202
109.513	106.7818
109.502	106.7440
109.489	106.7066
109.486	106.6696
109.486	106.6329
109.481	106.5972
109.488	106.5611
109.491	106.5252
109.498	106.4904
109.495	106.4559
109.465	106.4219
109.442	106.3884
109.421	106.3551
109.390	106.3226
109.364	106.2901
109.362	106.2586
109.393	106.2272
109.421	106.1965
109.441	106.1659
109.448	106.1357
109.448	106.1061
109.448	106.0771
109.448	106.0478
109.446	106.0193
109.444	105.9914
109.432	105.9639
109.416	105.9367
109.410	105.9097
109.380	105.8836
109.335	105.8576
109.303	105.8321
109.281	105.8072
109.255	105.7827
109.259	105.7585
109.278	105.7349
109.288	105.7114
109.283	105.6886
109.300	105.6662
109.298	105.6444
109.304	105.6229
109.301	105.6022
109.307	105.5815
109.310	105.5612
109.312	105.5414
109.314	105.5221
109.324	105.5032
109.334	105.4850
109.337	105.4670
109.311	105.4494
109.293	105.4325
109.303	105.4156
109.288	105.3996
109.265	105.3839
109.241	105.3687
109.230	105.3539
109.229	105.3393
109.229	105.3253
109.251	105.3114
109.267	105.2977
109.260	105.2852
109.246	105.2727
109.247	105.2604
109.252	105.2486
109.298	105.2375
109.536	105.2265
109.913	105.2158
110.407	105.2059
110.957	105.1952
111.552	105.1851
112.164	105.1749
112.801	105.1649
113.461	105.1546
114.111	105.1445
114.784	105.1353
115.446	105.1256
116.115	105.1160
116.799	105.1067
117.466	105.0973
118.137	105.0879
118.818	105.0785
119.508	105.0692
120.230	105.0600
120.947	105.0508
121.648	105.0412
122.333	105.0320
123.014	105.0227
123.705	105.0136
124.398	105.0046
125.101	104.9955
125.793	104.9865
126.476	104.9771
127.144	104.9681
127.849	104.9593
128.558	104.9508
129.245	104.9418
129.943	104.9329
130.638	104.9240
131.345	104.9153
132.022	104.9063
132.711	104.8979
133.408	104.8897
134.105	104.8814
134.800	104.8731
135.483	104.8650
136.181	104.8572
136.901	104.8495
137.615	104.8415
138.313	104.8344
138.994	104.8271
139.682	104.8201
140.385	104.8134
141.093	104.8065
141.798	104.7999
142.496	104.7926
143.191	104.7862
143.891	104.7795
144.603	104.7730
145.307	104.7666
145.991	104.7600
146.681	104.7537
147.348	104.7475
148.000	104.7411
148.669	104.7351
149.382	104.7291
150.107	104.7231
150.825	104.7170
151.536	104.7109
152.239	104.7052
152.952	104.6991
153.654	104.6936
154.358	104.6879
155.064	104.6823
155.777	104.6764
156.482	104.6707
157.173	104.6650
157.864	104.6595
158.573	104.6543
159.288	104.6488
159.993	104.6428
160.681	104.6373
161.364	104.6318
162.041	104.6259
162.714	104.6211
163.417	104.6153
164.133	104.6091
164.835	104.6037
165.524	104.5980
166.225	104.5919
166.926	104.5861
167.619	104.5805
168.290	104.5749
168.945	104.5688
169.582	104.5631
170.221	104.5571
170.864	104.5511
171.524	104.5451
172.176	104.5391
172.801	104.5334
173.392	104.5271
174.009	104.5209
174.612	104.5150
175.209	104.5089
175.836	104.5029
176.451	104.4968
177.075	104.4902
177.719	104.4841
178.361	104.4774
178.978	104.4712
179.595	104.4647
180.225	104.4588
180.858	104.4523
181.484	104.4458
182.099	104.4393
182.706	104.4328
183.306	104.4263
183.916	104.4198
184.542	104.4129
185.183	104.4062
185.820	104.3994
186.433	104.3921
187.042	104.3853
187.676	104.3783
188.306	104.3712
188.945	104.3644
189.577	104.3572
190.223	104.3498
190.872	104.3425
191.512	104.3350
192.142	104.3276
192.781	104.3201
193.408	104.3124
194.045	104.3048
194.681	104.2974
195.333	104.2895
195.987	104.2818
196.630	104.2736
197.272	104.2658
197.912	104.2577
198.546	104.2496
199.163	104.2417
199.775	104.2335
200.398	104.2250
201.023	104.2165
201.677	104.2082
202.339	104.1997
202.982	104.1914
203.617	104.1827
204.234	104.1739
204.874	104.1652
205.538	104.1565
206.187	104.1478
206.823	104.1388
207.456	104.1297
208.105	104.1205
208.756	104.1113
209.404	104.1022
210.044	104.0930
210.693	104.0838
211.336	104.0745
211.960	104.0651
212.560	104.0560
213.159	104.0463
213.805	104.0368
214.489	104.0277
215.154	104.0186
215.802	104.0090
216.458	103.9997
217.096	103.9903
217.727	103.9808
218.355	103.9714
218.978	103.9620
219.580	103.9526
220.187	103.9438
220.794	103.9343
221.424	103.9251
222.066	103.9158
222.697	103.9067
223.334	103.8978
223.956	103.8892
224.582	103.8804
225.218	103.8714
225.840	103.8624
226.462	103.8539
227.104	103.8456
227.733	103.8371
228.351	103.8289
228.995	103.8208
229.606	103.8127
230.210	103.8042
230.854	103.7964
231.496	103.7886
232.134	103.7808
232.793	103.7733
233.457	103.7657
234.099	103.7583
234.731	103.7504
235.356	103.7429
235.972	103.7358
236.599	103.7288
237.223	103.7219
237.851	103.7148
238.469	103.7078
239.081	103.7009
239.716	103.6936
240.338	103.6863
240.940	103.6795
241.539	103.6725
242.127	103.6660
242.715	103.6593
243.391	103.6523
244.077	103.6452
244.742	103.6381
245.386	103.6314
246.019	103.6245
246.643	103.6175
247.259	103.6106
247.872	103.6035
248.489	103.5963
249.106	103.5894
249.726	103.5823
250.350	103.5754
250.971	103.5684
251.572	103.5613
252.159	103.5539
252.744	103.5468
253.339	103.5398
253.953	103.5326
254.570	103.5253
255.163	103.5180
255.753	103.5108
256.374	103.5038
256.975	103.4962
257.588	103.4886
258.171	103.4813
258.747	103.4740
259.351	103.4665
259.981	103.4594
260.614	103.4518
261.233	103.4443
261.840	103.4365
262.413	103.4289
262.951	103.4209
263.520	103.4132
264.091	103.4055
264.674	103.3979
265.272	103.3904
265.884	103.3823
266.506	103.3743
267.075	103.3663
267.642	103.3583
268.217	103.3504
268.821	103.3425
269.438	103.3347
270.036	103.3266
270.642	103.3186
271.216	103.3103
271.799	103.3025
272.420	103.2951
273.039	103.2864
273.616	103.2785
274.187	103.2699
274.793	103.2620
275.430	103.2540
276.046	103.2456
276.620	103.2375
277.213	103.2294
277.789	103.2214
278.350	103.2131
278.949	103.2053
279.558	103.1974
280.135	103.1894
280.733	103.1814
281.383	103.1736
282.009	103.1658
282.584	103.1578
283.165	103.1500
283.758	103.1423
284.376	103.1346
284.988	103.1268
285.580	103.1192
286.163	103.1116
286.769	103.1043
287.397	103.0969
288.019	103.0892
288.626	103.0822
289.242	103.0750
289.892	103.0675
290.506	103.0602
291.105	103.0529
291.696	103.0457
292.301	103.0388
292.904	103.0315
293.513	103.0244
294.168	103.0173
294.805	103.0105
295.440	103.0035
296.096	102.9963
296.753	102.9896
297.321	102.9827
297.891	102.9759
298.533	102.9693
299.126	102.9627
299.744	102.9562
300.383	102.9495
301.026	102.9432
301.629	102.9368
302.218	102.9300
302.804	102.9235
303.399	102.9172
303.977	102.9110
304.577	102.9049
305.186	102.8988
305.749	102.8924
306.314	102.8863
306.932	102.8802
307.544	102.8740
308.200	102.8683
308.793	102.8623
309.369	102.8563
309.982	102.8504
310.649	102.8443
311.331	102.8386
311.955	102.8328
312.581	102.8271
313.214	102.8213
313.845	102.8156
314.442	102.8097
315.043	102.8042
315.631	102.7985
316.246	102.7929
316.874	102.7874
317.523	102.7816
318.153	102.7761
318.759	102.7708
319.354	102.7653
319.992	102.7598
320.632	102.7543
321.259	102.7488
321.871	102.7434
322.512	102.7378
323.169	102.7323
323.809	102.7271
324.405	102.7217
325.040	102.7162
325.666	102.7110
326.296	102.7061
326.898	102.7003
327.519	102.6954
328.117	102.6903
328.660	102.6851
329.269	102.6799
329.948	102.6748
330.655	102.6697
331.330	102.6647
332.042	102.6596
332.747	102.6545
333.414	102.6495
334.034	102.6445
334.631	102.6395
335.232	102.6348
335.879	102.6302
336.548	102.6253
337.191	102.6199
337.845	102.6151
338.481	102.6106
339.101	102.6059
339.699	102.6009
340.294	102.5963
340.928	102.5916
341.617	102.5868
342.292	102.5822
342.892	102.5774
343.409	102.5730
343.969	102.5682
344.579	102.5638
345.206	102.5594
345.823	102.5552
346.417	102.5506
347.058	102.5460
347.672	102.5414
348.349	102.5371
348.987	102.5329
349.562	102.5288
350.158	102.5243
350.803	102.5198
351.423	102.5155
352.057	102.5115
352.723	102.5071
353.408	102.5030
354.016	102.4989
354.637	102.4947
355.308	102.4907
355.962	102.4864
356.642	102.4824
357.297	102.4785
357.931	102.4743
358.539	102.4700
359.138	102.4660
359.762	102.4619
360.410	102.4582
361.031	102.4539
361.638	102.4499
362.291	102.4458
362.951	102.4420
363.585	102.4380
364.254	102.4340
364.937	102.4302
365.587	102.4263
366.279	102.4223
366.949	102.4181
367.553	102.4141
368.160	102.4101
368.829	102.4063
369.461	102.4022
370.069	102.3980
370.713	102.3939
371.424	102.3901
372.029	102.3858
372.719	102.3814
373.392	102.3772
373.995	102.3727
374.593	102.3684
375.210	102.3634
375.876	102.3595
376.555	102.3549
377.262	102.3505
377.867	102.3457
378.477	102.3411
379.126	102.3365
379.833	102.3316
380.432	102.3268
381.075	102.3218
381.772	102.3169
382.425	102.3119
383.092	102.3066
383.718	102.3013
384.321	102.2961
384.854	102.2904
385.457	102.2849
386.147	102.2794
386.850	102.2739
387.546	102.2682
388.221	102.2625
388.889	102.2569
389.532	102.2512
390.188	102.2454
390.860	102.2396
391.521	102.2335
392.136	102.2274
392.728	102.2215
393.329	102.2149
393.962	102.2090
394.628	102.2031
395.297	102.1971
395.997	102.1911
396.696	102.1849
397.303	102.1784
397.888	102.1725
398.500	102.1663
399.181	102.1600
399.883	102.1536
400.513	102.1476
401.184	102.1412
401.839	102.1347
402.533	102.1285
403.199	102.1220
403.819	102.1155
404.458	102.1091
405.111	102.1026
405.793	102.0962
406.458	102.0898
407.013	102.0834
407.606	102.0768
408.268	102.0701
408.902	102.0635
409.576	102.0570
410.294	102.0506
411.029	102.0438
411.748	102.0373
412.388	102.0304
413.042	102.0240
413.692	102.0175
414.340	102.0108
414.997	102.0042
415.692	101.9976
416.430	101.9907
417.145	101.9841
417.829	101.9774
418.481	101.9707
419.127	101.9640
419.760	101.9575
420.372	101.9509
420.977	101.9442
421.594	101.9379
422.197	101.9315
422.828	101.9249
423.465	101.9183
424.043	101.9118
424.677	101.9054
425.343	101.8993
425.955	101.8928
426.609	101.8866
427.260	101.8799
427.931	101.8735
428.595	101.8672
429.237	101.8610
429.909	101.8549
430.567	101.8487
431.201	101.8426
431.834	101.8367
432.478	101.8307
433.154	101.8249
433.840	101.8189
434.532	101.8133
435.211	101.8076
435.852	101.8015
436.434	101.7957
437.032	101.7900
437.653	101.7844
438.302	101.7791
438.971	101.7737
439.678	101.7680
440.357	101.7627
441.013	101.7575
441.650	101.7521
442.245	101.7469
442.911	101.7416
443.587	101.7366
444.208	101.7314
444.845	101.7264
445.515	101.7215
446.147	101.7167
446.764	101.7118
447.427	101.7071
448.064	101.7023
448.698	101.6977
449.348	101.6932
450.078	101.6884
450.829	101.6837
451.526	101.6794
452.169	101.6748
452.814	101.6705
453.441	101.6659
454.063	101.6617
454.716	101.6573
455.371	101.6532
456.004	101.6490
456.608	101.6450
457.211	101.6409
457.783	101.6370
458.425	101.6333
459.065	101.6291
459.754	101.6253
460.458	101.6214
461.090	101.6179
461.664	101.6142
462.308	101.6102
462.945	101.6067
463.637	101.6030
464.306	101.5996
464.961	101.5960
465.600	101.5924
466.226	101.5890
466.880	101.5859
467.615	101.5823
468.343	101.5789
469.040	101.5757
469.678	101.5727
470.338	101.5695
470.996	101.5663
471.663	101.5633
472.309	101.5600
472.977	101.5568
473.656	101.5538
474.326	101.5507
474.996	101.5479
475.625	101.5448
476.165	101.5416
476.737	101.5390
477.368	101.5362
478.122	101.5333
478.950	101.5305
479.672	101.5275
480.346	101.5248
481.009	101.5219
481.686	101.5192
482.311	101.5163
482.956	101.5137
483.671	101.5110
484.383	101.5083
485.068	101.5056
485.803	101.5028
486.486	101.5004
487.056	101.4975
487.726	101.4949
488.356	101.4921
488.966	101.4895
489.652	101.4870
490.309	101.4845
490.974	101.4820
491.662	101.4796
492.395	101.4770
493.115	101.4744
493.628	101.4720
494.286	101.4694
494.915	101.4670
495.592	101.4645
496.147	101.4620
496.704	101.4595
497.332	101.4572
498.007	101.4550
498.742	101.4524
499.531	101.4499
500.250	101.4476
500.807	101.4453
501.454	101.4431
502.169	101.4407
503.014	101.4383
503.613	101.4359
504.173	101.4337
504.798	101.4312
505.494	101.4290
506.122	101.4266
506.726	101.4246
507.373	101.4225
508.098	101.4202
508.719	101.4178
509.369	101.4154
509.965	101.4137
510.525	101.4118
511.251	101.4093
512.060	101.4069
512.731	101.4049
513.333	101.4028
513.962	101.4006
514.628	101.3984
515.315	101.3963
515.982	101.3941
516.606	101.3920
517.190	101.3899
517.901	101.3874
518.534	101.3855
519.110	101.3835
519.854	101.3812
520.520	101.3792
521.143	101.3772
521.855	101.3751
522.524	101.3732
523.237	101.3712
523.901	101.3693
524.512	101.3671
525.129	101.3647
525.681	101.3625
526.286	101.3605
527.002	101.3589
527.667	101.3571
528.288	101.3553
528.909	101.3527
529.599	101.3509
530.286	101.3490
531.005	101.3472
531.721	101.3455
532.388	101.3434
533.105	101.3415
533.794	101.3398
534.440	101.3375
535.094	101.3355
535.756	101.3335
536.434	101.3317
537.070	101.3298
537.743	101.3281
538.388	101.3263
539.052	101.3245
539.702	101.3228
540.368	101.3210
541.068	101.3193
541.879	101.3175
542.698	101.3155
543.435	101.3139
544.214	101.3122
544.874	101.3103
545.513	101.3086
545.996	101.3072
546.592	101.3055
547.119	101.3035
547.692	101.3018
548.436	101.3007
549.198	101.2985
549.904	101.2971
550.576	101.2954
551.269	101.2939
551.840	101.2921
552.519	101.2906
553.252	101.2890
553.990	101.2876
554.835	101.2859
555.535	101.2841
556.279	101.2825
556.899	101.2809
557.480	101.2793
558.072	101.2779
558.762	101.2763
559.379	101.2747
560.049	101.2733
560.778	101.2721
561.323	101.2704
561.852	101.2687
562.680	101.2673
563.530	101.2657
564.106	101.2642
564.698	101.2626
565.338	101.2612
565.980	101.2596
566.759	101.2583
567.752	101.2568
568.599	101.2553
569.247	101.2539
569.893	101.2522
570.611	101.2509
571.389	101.2497
572.115	101.2482
572.828	101.2466
573.541	101.2451
574.253	101.2437
574.939	101.2422
575.584	101.2406
576.217	101.2392
576.879	101.2381
577.499	101.2365
578.084	101.2350
578.827	101.2339
579.458	101.2324
580.091	101.2311
580.804	101.2298
581.537	101.2286
582.236	101.2274
583.034	101.2257
583.786	101.2243
584.509	101.2232
585.212	101.2223
585.915	101.2210
586.595	101.2198
587.283	101.2178
587.969	101.2167
588.651	101.2157
589.342	101.2145
590.035	101.2130
590.684	101.2115
591.229	101.2102
591.859	101.2093
592.590	101.2079
593.284	101.2066
593.814	101.2051
594.433	101.2041
595.085	101.2030
595.827	101.2017
596.604	101.2005
597.288	101.1995
597.869	101.1981
598.415	101.1972
599.174	101.1960
599.981	101.1948
600.709	101.1936
601.424	101.1927
602.095	101.1914
602.667	101.1901
603.188	101.1892
603.844	101.1882
604.524	101.1871
605.215	101.1859
605.913	101.1850
606.706	101.1839
607.422	101.1826
608.123	101.1816
608.790	101.1807
609.413	101.1796
610.037	101.1784
610.694	101.1774
611.404	101.1764
612.088	101.1753
612.856	101.1744
613.533	101.1735
614.142	101.1726
614.764	101.1717
615.369	101.1704
616.015	101.1697
616.703	101.1685
617.387	101.1677
618.116	101.1667
618.869	101.1659
619.584	101.1650
620.208	101.1640
620.859	101.1630
621.520	101.1621
622.204	101.1613
622.857	101.1602
623.467	101.1594
624.094	101.1588
624.730	101.1577
625.284	101.1565
625.647	101.1559
626.154	101.1549
626.795	101.1543
627.501	101.1537
628.186	101.1527
628.899	101.1519
629.565	101.1510
630.242	101.1504
630.916	101.1495
631.570	101.1488
632.212	101.1479
632.901	101.1473
633.621	101.1465
634.253	101.1455
634.699	101.1449
635.322	101.1442
636.005	101.1434
636.651	101.1426
637.385	101.1417
638.086	101.1411
638.703	101.1403
639.358	101.1395
640.098	101.1389
640.900	101.1380
641.648	101.1374
642.213	101.1368
642.676	101.1358
643.240	101.1354
643.788	101.1347
644.358	101.1342
645.062	101.1334
645.763	101.1328
646.329	101.1321
646.986	101.1314
647.662	101.1308
648.369	101.1301
649.025	101.1292
649.633	101.1288
650.363	101.1280
650.949	101.1274
651.449	101.1268
652.014	101.1258
652.640	101.1251
653.201	101.1246
653.821	101.1242
654.508	101.1236
655.250	101.1230
655.903	101.1223
656.500	101.1214
657.149	101.1210
657.802	101.1205
658.429	101.1197
659.242	101.1195
659.957	101.1190
660.613	101.1183
661.301	101.1176
661.982	101.1173
662.624	101.1166
663.268	101.1161
663.900	101.1156
664.580	101.1151
665.262	101.1145
665.998	101.1139
666.804	101.1134
667.548	101.1129
668.272	101.1125
669.013	101.1121
669.855	101.1115
670.571	101.1107
671.325	101.1103
672.075	101.1100
672.824	101.1093
673.588	101.1087
674.365	101.1086
675.097	101.1082
675.787	101.1078
676.492	101.1073
677.161	101.1067
677.905	101.1062
678.784	101.1055
679.623	101.1050
680.510	101.1046
681.332	101.1044
681.991	101.1040
682.639	101.1034
683.194	101.1029
683.891	101.1025
684.723	101.1020
685.437	101.1014
686.112	101.1011
686.821	101.1004
687.471	101.1002
688.111	101.0996
688.885	101.0992
689.565	101.0989
690.257	101.0981
691.037	101.0975
691.943	101.0974
692.654	101.0971
693.419	101.0967
694.119	101.0960
694.741	101.0958
695.522	101.0955
696.140	101.0947
696.844	101.0943
697.246	101.0938
698.035	101.0938
698.958	101.0934
699.659	101.0925
700.437	101.0922
701.278	101.0916
702.090	101.0914
702.821	101.0910
703.395	101.0908
704.164	101.0903
704.957	101.0897
705.613	101.0893
706.254	101.0889
706.952	101.0885
707.747	101.0880
708.533	101.0875
709.130	101.0874
709.684	101.0869
710.328	101.0865
711.327	101.0858
712.212	101.0854
713.059	101.0849
713.794	101.0844
714.365	101.0842
715.012	101.0838
715.708	101.0836
716.581	101.0833
717.332	101.0829
718.169	101.0827
718.893	101.0821
719.558	101.0815
720.472	101.0812
721.201	101.0807
721.915	101.0803
722.610	101.0802
723.255	101.0798
723.935	101.0793
724.683	101.0787
725.384	101.0782
725.999	101.0780
726.604	101.0775
727.175	101.0773
727.812	101.0767
728.839	101.0762
729.764	101.0759
730.278	101.0754
730.851	101.0748
731.526	101.0743
732.215	101.0740
732.853	101.0738
733.445	101.0729
734.131	101.0723
734.871	101.0721
735.495	101.0716
736.133	101.0711
736.828	101.0708
737.510	101.0702
738.196	101.0697
738.848	101.0691
739.521	101.0687
740.352	101.0686
741.046	101.0681
741.812	101.0676
742.638	101.0669
743.431	101.0665
744.059	101.0658
744.717	101.0652
745.360	101.0649
745.823	101.0646
746.350	101.0640
747.210	101.0632
747.851	101.0628
748.366	101.0624
748.958	101.0619
749.811	101.0614
750.647	101.0607
751.362	101.0603
752.043	101.0596
752.689	101.0593
753.424	101.0584
754.106	101.0580
754.740	101.0577
755.294	101.0569
755.950	101.0566
756.588	101.0560
757.520	101.0554
758.493	101.0544
759.186	101.0538
759.764	101.0534
760.127	101.0528
760.432	101.0524
760.940	101.0518
761.618	101.0510
762.639	101.0502
763.754	101.0495
764.231	101.0487
764.640	101.0482
765.321	101.0477
765.910	101.0474
766.513	101.0466
767.269	101.0458
767.995	101.0450
768.717	101.0445
769.504	101.0440
770.126	101.0430
770.820	101.0427
771.532	101.0422
772.302	101.0411
772.911	101.0405
773.550	101.0395
774.110	101.0385
774.838	101.0381
775.909	101.0376
776.394	101.0371
776.910	101.0364
777.491	101.0356
778.019	101.0350
778.572	101.0344
779.251	101.0337
780.020	101.0330
780.621	101.0322
781.098	101.0312
781.993	101.0305
782.747	101.0298
783.302	101.0295
784.088	101.0283
784.812	101.0276
785.669	101.0269
786.712	101.0259
787.670	101.0250
788.368	101.0241
789.012	101.0231
789.404	101.0223
789.961	101.0216
790.523	101.0209
791.171	101.0198
791.137	101.0189
791.477	101.0181
792.730	101.0175
793.768	101.0164
794.547	101.0156
795.087	101.0145
795.643	101.0134
796.349	101.0125
797.327	101.0115
797.919	101.0109
798.728	101.0098
799.387	101.0088
800.163	101.0076
800.296	101.0066
800.451	101.0057
800.910	101.0049
801.110	101.0036
801.387	101.0025
801.480	101.0015
801.258	101.0006
800.980	100.9997
800.803	100.9988
800.584	100.9976
800.676	100.9970
800.844	100.9964
800.638	100.9952
800.497	100.9941
800.468	100.9930
800.946	100.9925
801.495	100.9918
801.583	100.9910
801.123	100.9900
801.092	100.9888
801.317	100.9875
801.409	100.9871
800.975	100.9861
800.724	100.9851
800.625	100.9839
800.625	100.9831
800.583	100.9821
800.648	100.9812
800.397	100.9804
800.525	100.9794
800.743	100.9786
800.660	100.9776
800.623	100.9768
800.815	100.9757
800.664	100.9748
800.663	100.9743
800.482	100.9734
800.559	100.9723
800.678	100.9713
800.559	100.9704
800.531	100.9698
800.601	100.9688
800.684	100.9681
800.627	100.9669
800.652	100.9659
800.725	100.9652
800.563	100.9643
800.666	100.9630
800.678	100.9620
800.516	100.9614
800.411	100.9602
800.336	100.9598
800.133	100.9583
800.138	100.9572
800.245	100.9562
800.357	100.9556
800.382	100.9546
800.393	100.9539
800.410	100.9530
800.427	100.9519
800.256	100.9510
800.281	100.9502
800.649	100.9494
800.813	100.9483
800.810	100.9472
800.660	100.9464
800.555	100.9454
800.684	100.9445
800.670	100.9437
800.504	100.9429
800.592	100.9422
800.808	100.9410
800.788	100.9402
800.599	100.9391
800.433	100.9382
800.384	100.9374
800.691	100.9363
800.783	100.9358
800.820	100.9347
800.684	100.9338
800.662	100.9326
800.798	100.9321
800.875	100.9310
800.952	100.9303
800.927	100.9291
800.704	100.9281
800.557	100.9270
800.595	100.9261
800.438	100.9252
800.475	100.9242
800.607	100.9233
800.644	100.9224
800.570	100.9214
800.630	100.9204
800.728	100.9195
800.746	100.9188
800.775	100.9176
800.897	100.9168
800.636	100.9158
800.624	100.9147
800.590	100.9140
800.669	100.9132
800.588	100.9123
800.638	100.9113
800.607	100.9103
800.444	100.9092
800.264	100.9085
800.463	100.9075
800.465	100.9067
800.628	100.9057
800.723	100.9046
800.669	100.9034
800.602	100.9026
800.586	100.9019
800.587	100.9011
800.637	100.9002
800.589	100.8993
800.519	100.8982
800.677	100.8972
800.641	100.8962
800.542	100.8954
800.563	100.8944
800.553	100.8934
800.523	100.8928
800.513	100.8918
800.635	100.8910
800.482	100.8902
800.558	100.8893
800.654	100.8882
800.568	100.8872
800.558	100.8867
800.345	100.8857
800.133	100.8846
800.077	100.8838
800.142	100.8826
800.180	100.8818
800.231	100.8811
800.202	100.8802
800.314	100.8796
800.177	100.8787
800.118	100.8777
800.141	100.8770
800.211	100.8762
800.121	100.8753
800.106	100.8743
800.234	100.8735
800.225	100.8726
800.238	100.8721
800.200	100.8711
800.195	100.8705
800.246	100.8695
800.286	100.8685
800.340	100.8675
800.097	100.8668
799.922	100.8658
800.138	100.8649
800.291	100.8639
800.334	100.8633
800.268	100.8622
800.239	100.8615
800.245	100.8606
800.186	100.8599
800.154	100.8588
800.068	100.8580
799.921	100.8571
799.889	100.8562
799.809	100.8556
800.024	100.8548
800.309	100.8536
800.307	100.8528
800.178	100.8519
800.253	100.8511
800.149	100.8503
800.009	100.8495
799.980	100.8487
800.196	100.8476
800.235	100.8471
800.188	100.8461
800.301	100.8451
800.501	100.8444
800.504	100.8435
800.471	100.8427
800.455	100.8419
800.510	100.8412
800.532	100.8402
800.466	100.8393
800.466	100.8386
800.614	100.8379
800.650	100.8369
800.727	100.8360
800.707	100.8352
800.664	100.8347
800.657	100.8336
800.508	100.8327
800.332	100.8314
800.562	100.8309
800.665	100.8302
800.696	100.8291
800.707	100.8284
800.670	100.8277
800.727	100.8269
800.801	100.8261
800.977	100.8251
800.854	100.8242
800.499	100.8232
800.490	100.8225
800.395	100.8214
800.367	100.8206
800.368	100.8196
800.578	100.8185
800.474	100.8179
800.466	100.8173
800.542	100.8169
800.525	100.8157
800.412	100.8147
800.617	100.8140
800.757	100.8131
800.857	100.8124
800.759	100.8115
800.487	100.8106
800.473	100.8098
800.695	100.8089
800.763	100.8081
800.765	100.8074