File: data_plotting/tga/Ag2 8_9_16.txt
Filename:	D:\Users\Thermal_Users\LeBlanc\Ag2 ink 8_9_16.tg1d

Temperature (°C)	Weight (mg)
26.207	74.9123
26.565	74.9156
26.946	74.9158
27.220	74.9149
27.398	74.9141
27.513	74.9132
27.587	74.9128
27.639	74.9122
27.677	74.9117
27.705	74.9111
27.726	74.9108
27.742	74.9108
27.754	74.9102
27.763	74.9101
27.771	74.9098
27.777	74.9094
27.785	74.9092
27.810	74.9093
27.863	74.9099
27.938	74.9099
28.029	74.9103
28.130	74.9101
28.236	74.9100
28.348	74.9101
28.461	74.9099
28.577	74.9100
28.696	74.9098
29.940	74.9201
32.724	74.9316
19.680	74.9297
15.282	74.9257
23.157	75.0073
29.167	75.1772
33.637	75.1995
37.075	75.1989
39.809	75.1958
42.065	75.1923
43.984	75.1879
45.622	75.1828
47.063	75.1779
48.345	75.1730
49.495	75.1684
50.576	75.1634
51.578	75.1589
52.518	75.1544
53.398	75.1499
54.239	75.1453
55.055	75.1413
55.850	75.1368
56.619	75.1326
57.431	75.1278
58.231	75.1233
59.007	75.1189
59.757	75.1143
60.514	75.1091
61.248	75.1041
61.983	75.0995
62.711	75.0943
63.434	75.0892
64.157	75.0840
64.863	75.0790
65.586	75.0729
66.312	75.0672
67.027	75.0616
67.752	75.0554
68.461	75.0493
69.162	75.0431
69.873	75.0368
70.586	75.0302
71.311	75.0237
72.030	75.0172
72.744	75.0102
73.456	75.0033
74.169	74.9958
74.880	74.9886
75.587	74.9812
76.290	74.9732
76.995	74.9659
77.701	74.9580
78.406	74.9500
79.105	74.9428
79.803	74.9346
80.505	74.9258
81.216	74.9170
81.927	74.9085
82.613	74.9001
83.292	74.8915
84.005	74.8828
84.674	74.8737
85.357	74.8648
86.063	74.8557
86.786	74.8462
87.501	74.8366
88.219	74.8273
88.933	74.8180
89.636	74.8080
90.344	74.7981
91.003	74.7883
91.710	74.7782
92.430	74.7683
93.145	74.7583
93.856	74.7478
94.557	74.7375
95.243	74.7266
95.944	74.7156
96.653	74.7050
97.362	74.6939
98.063	74.6830
98.733	74.6720
99.410	74.6608
100.101	74.6492
100.841	74.6377
101.544	74.6264
102.223	74.6148
102.925	74.6028
103.632	74.5912
104.325	74.5793
105.048	74.5673
105.760	74.5551
106.470	74.5429
107.172	74.5308
107.911	74.5180
108.615	74.5049
109.319	74.4928
110.005	74.4801
110.719	74.4670
111.436	74.4540
112.119	74.4407
112.770	74.4279
113.455	74.4145
114.155	74.4011
114.845	74.3877
115.536	74.3743
116.248	74.3606
116.929	74.3466
117.623	74.3327
118.343	74.3186
119.045	74.3043
119.766	74.2901
120.457	74.2756
121.157	74.2606
121.870	74.2462
122.590	74.2308
123.297	74.2158
123.993	74.2005
124.668	74.1853
125.327	74.1700
126.001	74.1538
126.691	74.1377
127.380	74.1215
128.094	74.1055
128.813	74.0888
129.504	74.0725
130.187	74.0560
130.860	74.0392
131.540	74.0225
132.255	74.0053
132.963	73.9881
133.649	73.9702
134.326	73.9528
135.005	73.9354
135.708	73.9176
136.424	73.8997
137.135	73.8818
137.847	73.8633
138.546	73.8452
139.236	73.8268
139.932	73.8083
140.597	73.7896
141.249	73.7709
141.957	73.7522
142.673	73.7332
143.384	73.7141
144.087	73.6949
144.778	73.6757
145.472	73.6566
146.169	73.6374
146.854	73.6180
147.510	73.5989
148.161	73.5790
148.823	73.5594
149.546	73.5400
150.259	73.5203
150.971	73.5007
151.691	73.4807
152.385	73.4610
153.078	73.4410
153.769	73.4210
154.465	73.4016
155.174	73.3815
155.865	73.3612
156.575	73.3414
157.285	73.3217
157.972	73.3015
158.639	73.2813
159.312	73.2613
160.004	73.2416
160.706	73.2216
161.410	73.2018
162.128	73.1819
162.834	73.1623
163.509	73.1423
164.202	73.1223
164.898	73.1029
165.595	73.0832
166.304	73.0637
167.019	73.0438
167.737	73.0243
168.426	73.0052
169.095	72.9857
169.735	72.9669
170.374	72.9476
171.015	72.9285
171.660	72.9094
172.315	72.8907
172.978	72.8720
173.611	72.8534
174.215	72.8351
174.816	72.8170
175.430	72.7990
176.050	72.7810
176.680	72.7631
177.319	72.7456
177.960	72.7281
178.579	72.7108
179.201	72.6935
179.840	72.6763
180.460	72.6596
181.068	72.6429
181.686	72.6263
182.318	72.6101
182.935	72.5938
183.532	72.5774
184.130	72.5617
184.746	72.5457
185.375	72.5304
185.997	72.5148
186.618	72.5000
187.258	72.4851
187.889	72.4696
188.508	72.4549
189.123	72.4402
189.741	72.4254
190.356	72.4111
190.964	72.3966
191.588	72.3825
192.246	72.3688
192.924	72.3547
193.569	72.3409
194.206	72.3272
194.839	72.3135
195.481	72.3000
196.150	72.2865
196.797	72.2732
197.419	72.2596
198.046	72.2463
198.678	72.2333
199.336	72.2202
200.013	72.2075
200.678	72.1945
201.324	72.1814
201.961	72.1685
202.616	72.1558
203.272	72.1430
203.920	72.1305
204.555	72.1176
205.189	72.1044
205.822	72.0921
206.453	72.0793
207.078	72.0667
207.718	72.0532
208.365	72.0400
209.002	72.0271
209.638	72.0141
210.279	72.0011
210.908	71.9886
211.564	71.9770
212.224	71.9661
212.862	71.9551
213.522	71.9436
214.163	71.9313
214.802	71.9189
215.455	71.9066
216.101	71.8942
216.752	71.8820
217.396	71.8696
218.042	71.8573
218.682	71.8449
219.324	71.8324
219.966	71.8201
220.605	71.8078
221.240	71.7955
221.852	71.7832
222.448	71.7708
223.051	71.7584
223.688	71.7459
224.318	71.7335
224.995	71.7213
225.639	71.7087
226.259	71.6961
226.881	71.6839
227.496	71.6716
228.128	71.6592
228.781	71.6466
229.424	71.6344
230.037	71.6216
230.676	71.6097
231.322	71.5972
231.963	71.5849
232.570	71.5723
233.168	71.5599
233.770	71.5473
234.387	71.5351
235.045	71.5229
235.660	71.5106
236.259	71.4980
236.877	71.4856
237.496	71.4737
238.095	71.4615
238.721	71.4493
239.351	71.4369
239.988	71.4248
240.611	71.4125
241.205	71.4002
241.797	71.3877
242.412	71.3759
243.033	71.3637
243.644	71.3514
244.265	71.3391
244.894	71.3270
245.537	71.3146
246.176	71.3024
246.769	71.2898
247.337	71.2773
247.907	71.2655
248.525	71.2541
249.138	71.2428
249.779	71.2315
250.377	71.2205
250.981	71.2092
251.593	71.1973
252.220	71.1860
252.847	71.1746
253.472	71.1634
254.074	71.1517
254.641	71.1404
255.222	71.1289
255.824	71.1177
256.441	71.1065
257.052	71.0957
257.664	71.0872
258.260	71.0779
258.850	71.0671
259.464	71.0561
260.047	71.0460
260.645	71.0359
261.278	71.0256
261.874	71.0150
262.480	71.0045
263.106	70.9947
263.738	70.9848
264.359	70.9745
264.977	70.9647
265.605	70.9545
266.196	70.9448
266.761	70.9349
267.330	70.9253
267.900	70.9158
268.471	70.9065
269.054	70.8972
269.650	70.8878
270.250	70.8785
270.837	70.8693
271.448	70.8602
272.081	70.8514
272.686	70.8424
273.309	70.8339
273.930	70.8249
274.555	70.8161
275.154	70.8073
275.732	70.7990
276.322	70.7905
276.930	70.7821
277.555	70.7740
278.178	70.7659
278.769	70.7575
279.336	70.7495
279.910	70.7415
280.487	70.7335
281.067	70.7257
281.689	70.7179
282.316	70.7102
282.951	70.7027
283.577	70.6949
284.137	70.6877
284.703	70.6805
285.297	70.6731
285.895	70.6661
286.478	70.6590
287.068	70.6521
287.670	70.6453
288.298	70.6385
288.906	70.6320
289.511	70.6254
290.123	70.6197
290.734	70.6129
291.351	70.6069
291.956	70.6007
292.555	70.5944
293.150	70.5886
293.745	70.5829
294.361	70.5776
294.977	70.5714
295.585	70.5657
296.216	70.5610
296.842	70.5561
297.495	70.5510
298.150	70.5457
298.755	70.5403
299.348	70.5350
299.946	70.5302
300.533	70.5249
301.152	70.5200
301.799	70.5153
302.431	70.5106
303.047	70.5057
303.645	70.5011
304.229	70.4967
304.801	70.4921
305.410	70.4877
306.071	70.4832
306.717	70.4789
307.326	70.4747
307.936	70.4702
308.577	70.4662
309.175	70.4618
309.737	70.4578
310.256	70.4543
310.804	70.4501
311.413	70.4459
312.051	70.4417
312.684	70.4380
313.338	70.4342
313.974	70.4304
314.600	70.4269
315.205	70.4232
315.800	70.4193
316.396	70.4158
317.028	70.4120
317.656	70.4084
318.258	70.4044
318.863	70.4008
319.491	70.3974
320.137	70.3941
320.776	70.3906
321.398	70.3868
322.026	70.3834
322.698	70.3801
323.341	70.3766
323.957	70.3734
324.601	70.3698
325.193	70.3660
325.783	70.3626
326.366	70.3590
326.994	70.3556
327.685	70.3521
328.313	70.3485
328.903	70.3452
329.499	70.3419
330.125	70.3386
330.818	70.3350
331.516	70.3317
332.135	70.3282
332.723	70.3247
333.317	70.3211
333.976	70.3180
334.663	70.3145
335.302	70.3112
335.903	70.3076
336.526	70.3041
337.217	70.3007
337.877	70.2972
338.518	70.2939
339.118	70.2905
339.682	70.2871
340.271	70.2832
340.878	70.2796
341.540	70.2762
342.199	70.2728
342.843	70.2691
343.429	70.2654
344.023	70.2616
344.667	70.2580
345.302	70.2547
345.936	70.2508
346.606	70.2474
347.267	70.2438
347.925	70.2402
348.614	70.2364
349.265	70.2328
349.871	70.2289
350.494	70.2253
351.112	70.2213
351.762	70.2176
352.390	70.2139
352.966	70.2096
353.583	70.2062
354.205	70.2023
354.846	70.1986
355.443	70.1946
356.101	70.1906
356.767	70.1864
357.469	70.1830
358.179	70.1790
358.839	70.1752
359.445	70.1710
360.073	70.1671
360.717	70.1632
361.339	70.1588
361.939	70.1548
362.582	70.1506
363.246	70.1464
363.881	70.1421
364.518	70.1377
365.123	70.1333
365.701	70.1292
366.316	70.1250
367.003	70.1207
367.692	70.1162
368.395	70.1119
369.104	70.1073
369.782	70.1027
370.428	70.0980
371.088	70.0933
371.767	70.0883
372.425	70.0835
373.025	70.0788
373.660	70.0743
374.304	70.0694
374.936	70.0643
375.576	70.0595
376.203	70.0544
376.836	70.0495
377.477	70.0443
378.152	70.0388
378.809	70.0339
379.412	70.0283
380.027	70.0233
380.682	70.0178
381.310	70.0126
381.920	70.0078
382.567	70.0022
383.260	69.9963
383.934	69.9912
384.679	69.9857
385.329	69.9806
385.950	69.9748
386.609	69.9690
387.235	69.9636
387.872	69.9581
388.500	69.9526
389.144	69.9473
389.801	69.9413
390.461	69.9358
391.050	69.9301
391.642	69.9246
392.302	69.9190
393.009	69.9134
393.785	69.9077
394.538	69.9021
395.241	69.8964
395.931	69.8911
396.599	69.8854
397.259	69.8801
397.914	69.8742
398.564	69.8689
399.217	69.8631
399.847	69.8573
400.447	69.8518
401.137	69.8469
401.764	69.8415
402.392	69.8362
403.020	69.8310
403.659	69.8258
404.347	69.8203
405.016	69.8153
405.620	69.8102
406.283	69.8053
406.931	69.8002
407.502	69.7953
408.084	69.7903
408.749	69.7857
409.403	69.7807
410.079	69.7758
410.736	69.7712
411.464	69.7668
412.131	69.7622
412.808	69.7579
413.479	69.7533
414.129	69.7486
414.761	69.7442
415.354	69.7398
415.933	69.7358
416.528	69.7315
417.239	69.7272
417.839	69.7229
418.439	69.7186
419.137	69.7150
419.826	69.7108
420.522	69.7067
421.188	69.7034
421.828	69.6995
422.502	69.6956
423.146	69.6919
423.789	69.6881
424.414	69.6845
425.050	69.6808
425.717	69.6772
426.432	69.6738
427.039	69.6704
427.625	69.6672
428.293	69.6641
428.964	69.6609
429.627	69.6575
430.284	69.6546
430.934	69.6512
431.605	69.6482
432.185	69.6453
432.789	69.6424
433.473	69.6394
434.190	69.6364
434.904	69.6339
435.535	69.6310
436.125	69.6286
436.728	69.6258
437.429	69.6230
438.081	69.6205
438.726	69.6184
439.310	69.6158
439.881	69.6135
440.527	69.6111
441.269	69.6088
442.047	69.6064
442.742	69.6043
443.411	69.6016
444.074	69.5998
444.719	69.5975
445.373	69.5955
446.048	69.5933
446.629	69.5910
447.246	69.5893
447.923	69.5875
448.530	69.5855
449.149	69.5836
449.825	69.5816
450.458	69.5798
451.119	69.5779
451.807	69.5761
452.481	69.5742
453.125	69.5725
453.719	69.5708
454.309	69.5690
454.908	69.5674
455.560	69.5656
456.248	69.5639
456.931	69.5625
457.601	69.5606
458.270	69.5584
458.933	69.5571
459.576	69.5559
460.205	69.5540
460.863	69.5525
461.518	69.5513
462.208	69.5495
462.791	69.5475
463.473	69.5464
464.221	69.5450
464.918	69.5433
465.559	69.5415
466.142	69.5401
466.696	69.5387
467.245	69.5369
467.821	69.5354
468.365	69.5336
468.913	69.5327
469.564	69.5316
470.279	69.5296
470.932	69.5279
471.586	69.5268
472.198	69.5253
472.807	69.5240
473.540	69.5228
474.227	69.5212
474.906	69.5195
475.578	69.5179
476.230	69.5171
476.920	69.5156
477.579	69.5143
478.314	69.5128
478.908	69.5113
479.511	69.5097
480.204	69.5083
480.830	69.5074
481.451	69.5062
482.168	69.5044
482.854	69.5029
483.428	69.5015
484.116	69.5003
484.777	69.4991
485.576	69.4977
486.326	69.4966
487.009	69.4950
487.640	69.4937
488.272	69.4924
488.946	69.4911
489.654	69.4901
490.303	69.4885
490.980	69.4870
491.643	69.4859
492.273	69.4846
492.944	69.4833
493.622	69.4820
494.289	69.4807
494.983	69.4794
495.707	69.4783
496.342	69.4769
496.995	69.4758
497.564	69.4744
498.227	69.4731
498.915	69.4717
499.592	69.4706
500.313	69.4691
501.059	69.4682
501.790	69.4670
502.522	69.4656
503.219	69.4640
503.901	69.4631
504.548	69.4619
505.182	69.4607
505.812	69.4595
506.456	69.4583
507.185	69.4573
507.951	69.4557
508.615	69.4543
509.232	69.4533
509.873	69.4517
510.488	69.4505
511.092	69.4495
511.740	69.4483
512.368	69.4470
513.015	69.4459
513.697	69.4444
514.452	69.4432
515.128	69.4423
515.781	69.4408
516.385	69.4396
517.039	69.4383
517.649	69.4368
518.423	69.4353
519.171	69.4342
519.857	69.4332
520.449	69.4312
521.169	69.4300
521.883	69.4288
522.592	69.4277
523.237	69.4261
523.831	69.4246
524.440	69.4233
524.992	69.4221
525.697	69.4204
526.535	69.4189
527.278	69.4173
527.918	69.4158
528.461	69.4143
529.052	69.4129
529.743	69.4109
530.464	69.4095
531.099	69.4079
531.774	69.4061
532.442	69.4047
533.108	69.4027
533.785	69.4012
534.450	69.3991
535.103	69.3974
535.759	69.3958
536.360	69.3940
536.866	69.3922
537.436	69.3906
538.100	69.3888
538.748	69.3870
539.497	69.3850
540.249	69.3830
540.873	69.3812
541.627	69.3796
542.310	69.3773
542.968	69.3754
543.648	69.3736
544.290	69.3714
544.952	69.3693
545.700	69.3671
546.448	69.3654
546.949	69.3634
547.551	69.3618
548.232	69.3597
548.865	69.3572
549.536	69.3555
550.174	69.3538
550.810	69.3515
551.496	69.3493
552.305	69.3475
553.054	69.3452
553.690	69.3431
554.305	69.3410
554.863	69.3393
555.443	69.3372
556.081	69.3354
556.685	69.3333
557.312	69.3308
558.036	69.3287
558.818	69.3272
559.513	69.3252
560.204	69.3227
560.819	69.3210
561.495	69.3193
562.160	69.3172
562.776	69.3149
563.500	69.3130
564.246	69.3109
564.848	69.3088
565.458	69.3068
566.106	69.3048
566.844	69.3031
567.618	69.3011
568.358	69.2990
568.920	69.2970
569.490	69.2951
570.189	69.2933
571.012	69.2910
571.823	69.2895
572.623	69.2876
573.302	69.2857
573.893	69.2836
574.537	69.2819
575.218	69.2801
575.922	69.2779
576.598	69.2764
577.281	69.2749
578.059	69.2730
578.735	69.2712
579.295	69.2696
579.924	69.2678
580.633	69.2661
581.267	69.2646
581.759	69.2627
582.245	69.2611
582.813	69.2595
583.584	69.2583
584.515	69.2562
585.261	69.2547
585.950	69.2531
586.625	69.2518
587.297	69.2501
587.969	69.2483
588.676	69.2470
589.341	69.2459
590.135	69.2440
590.883	69.2424
591.468	69.2406
592.125	69.2394
592.794	69.2382
593.463	69.2366
594.155	69.2349
594.757	69.2334
595.212	69.2322
595.855	69.2306
596.727	69.2292
597.473	69.2279
598.225	69.2266
598.828	69.2253
599.337	69.2238
599.927	69.2219
600.607	69.2206
601.302	69.2194
602.187	69.2180
602.924	69.2167
603.537	69.2153
604.081	69.2140
604.876	69.2128
605.568	69.2114
606.178	69.2099
606.730	69.2089
607.390	69.2076
608.163	69.2063
608.835	69.2049
609.421	69.2037
610.126	69.2025
610.858	69.2012
611.505	69.1999
612.268	69.1989
613.105	69.1975
613.876	69.1965
614.539	69.1947
615.241	69.1933
615.797	69.1924
616.422	69.1914
617.084	69.1896
617.767	69.1888
618.496	69.1874
619.174	69.1862
619.821	69.1850
620.501	69.1840
621.118	69.1829
621.761	69.1816
622.440	69.1804
623.078	69.1794
623.715	69.1779
624.324	69.1770
624.937	69.1758
625.619	69.1748
626.308	69.1736
626.974	69.1721
627.621	69.1715
628.211	69.1696
628.829	69.1688
629.513	69.1679
630.135	69.1669
630.708	69.1659
631.235	69.1650
631.706	69.1641
632.623	69.1626
633.432	69.1615
634.137	69.1600
634.773	69.1594
635.420	69.1585
636.044	69.1577
636.714	69.1561
637.436	69.1554
638.092	69.1548
638.679	69.1535
639.301	69.1525
640.003	69.1518
640.619	69.1505
641.253	69.1493
641.874	69.1483
642.454	69.1476
643.001	69.1467
643.585	69.1457
644.062	69.1447
644.676	69.1437
645.262	69.1430
645.835	69.1419
646.513	69.1408
647.195	69.1396
647.875	69.1388
648.547	69.1381
649.202	69.1372
649.821	69.1362
650.454	69.1354
651.072	69.1346
651.800	69.1338
652.590	69.1331
653.245	69.1322
653.722	69.1314
654.143	69.1304
654.629	69.1294
655.215	69.1288
655.831	69.1279
656.646	69.1269
657.393	69.1259
658.078	69.1251
658.899	69.1245
659.564	69.1236
660.222	69.1225
661.021	69.1215
661.691	69.1207
662.317	69.1203
662.821	69.1195
663.383	69.1183
664.080	69.1173
664.794	69.1167
665.542	69.1160
666.361	69.1154
666.858	69.1147
667.588	69.1137
668.169	69.1130
668.835	69.1121
669.942	69.1110
670.913	69.1100
671.688	69.1095
672.304	69.1089
672.978	69.1084
673.777	69.1076
674.558	69.1063
675.256	69.1055
675.969	69.1045
676.673	69.1037
677.545	69.1031
678.420	69.1026
679.265	69.1016
680.030	69.1004
680.759	69.0994
681.466	69.0985
682.230	69.0978
682.951	69.0971
683.682	69.0964
684.455	69.0954
685.111	69.0951
685.745	69.0949
686.563	69.0934
687.235	69.0925
687.987	69.0913
688.668	69.0908
689.377	69.0902
690.023	69.0893
690.677	69.0886
691.361	69.0879
692.018	69.0869
692.719	69.0861
693.490	69.0856
694.153	69.0844
694.887	69.0834
695.562	69.0826
696.197	69.0820
696.957	69.0813
697.765	69.0804
698.513	69.0795
699.219	69.0788
699.836	69.0780
700.609	69.0770
701.288	69.0764
702.041	69.0758
702.834	69.0746
703.580	69.0741
704.300	69.0735
705.080	69.0726
705.760	69.0718
706.337	69.0710
706.930	69.0705
707.551	69.0694
708.395	69.0687
709.198	69.0679
709.934	69.0673
710.657	69.0665
711.431	69.0658
712.208	69.0650
712.963	69.0642
713.557	69.0631
714.158	69.0623
714.816	69.0615
715.630	69.0604
716.476	69.0599
717.206	69.0595
717.832	69.0587
718.659	69.0580
719.400	69.0571
720.120	69.0562
720.920	69.0556
721.719	69.0548
722.465	69.0540
723.078	69.0532
723.766	69.0525
724.533	69.0518
725.273	69.0508
726.025	69.0502
726.689	69.0496
727.364	69.0489
728.079	69.0478
728.746	69.0468
729.538	69.0462
730.299	69.0456
730.913	69.0447
731.695	69.0438
732.471	69.0430
733.184	69.0417
733.927	69.0415
734.699	69.0406
735.328	69.0396
735.948	69.0387
736.597	69.0381
737.213	69.0373
737.883	69.0367
738.669	69.0358
739.382	69.0352
739.961	69.0344
740.668	69.0335
741.395	69.0328
742.061	69.0316
742.802	69.0309
743.577	69.0301
744.343	69.0296
745.064	69.0286
745.723	69.0281
746.285	69.0270
746.816	69.0259
747.464	69.0252
748.220	69.0244
748.940	69.0241
749.457	69.0232
750.174	69.0222
750.688	69.0216
751.404	69.0206
751.997	69.0196
752.592	69.0189
753.444	69.0184
754.241	69.0176
754.931	69.0166
755.684	69.0157
756.424	69.0146
757.087	69.0140
757.801	69.0132
758.470	69.0121
759.141	69.0110
759.829	69.0103
760.587	69.0093
761.330	69.0087
761.947	69.0077
762.514	69.0066
763.096	69.0060
763.877	69.0047
764.559	69.0041
765.367	69.0035
766.070	69.0024
766.836	69.0014
767.582	69.0009
768.133	68.9999
768.746	68.9986
769.229	68.9981
769.828	68.9973
770.592	68.9963
771.270	68.9951
771.988	68.9943
772.822	68.9932
773.568	68.9923
774.280	68.9915
774.958	68.9904
775.672	68.9889
776.312	68.9885
776.830	68.9874
777.410	68.9865
778.187	68.9853
778.885	68.9843
779.490	68.9831
780.293	68.9825
781.084	68.9818
781.699	68.9806
782.231	68.9791
782.790	68.9778
783.355	68.9771
784.291	68.9754
785.094	68.9751
785.960	68.9742
786.524	68.9730
787.237	68.9718
788.019	68.9707
788.596	68.9695
789.351	68.9686
789.818	68.9676
790.580	68.9664
791.490	68.9655
792.221	68.9638
792.956	68.9630
793.591	68.9622
794.279	68.9607
795.005	68.9592
795.699	68.9585
796.387	68.9573
797.085	68.9562
797.637	68.9549
798.366	68.9534
799.131	68.9523
799.849	68.9511
800.257	68.9504
800.593	68.9491
800.656	68.9479
800.614	68.9468
800.785	68.9452
800.915	68.9442
800.998	68.9432
800.907	68.9420
800.868	68.9409
800.571	68.9394
800.316	68.9383
800.296	68.9376
800.530	68.9364
800.501	68.9352
800.447	68.9342
800.505	68.9331
800.407	68.9321
800.499	68.9309
800.497	68.9295
800.477	68.9288
800.542	68.9274
800.589	68.9262
800.536	68.9248
800.483	68.9238
800.500	68.9228
800.379	68.9218
800.275	68.9209
800.246	68.9197
800.338	68.9187
800.341	68.9174
800.221	68.9165
800.154	68.9158
800.034	68.9146
799.863	68.9133
799.834	68.9120
800.012	68.9111
800.143	68.9101
800.253	68.9092
800.275	68.9080
800.202	68.9066
800.238	68.9055
800.171	68.9042
800.239	68.9033
800.223	68.9023
800.178	68.9008
800.082	68.8996
800.114	68.8987
800.140	68.8980
800.177	68.8971
800.296	68.8960
800.262	68.8949
800.159	68.8936
800.117	68.8925
800.033	68.8915
800.155	68.8904
800.423	68.8893
800.650	68.8881
800.757	68.8872
800.724	68.8862
800.623	68.8855
800.441	68.8839
800.310	68.8827
800.023	68.8817
799.734	68.8807
799.644	68.8802
799.667	68.8784
799.703	68.8773
799.848	68.8763
800.014	68.8755
800.053	68.8745
800.136	68.8734
800.212	68.8720
800.192	68.8708
800.205	68.8699
800.235	68.8688
800.279	68.8676
800.448	68.8666
800.457	68.8655
800.369	68.8645
800.355	68.8634
800.462	68.8624
800.410	68.8612
800.319	68.8600
800.292	68.8589
800.270	68.8579
800.262	68.8567
800.315	68.8556
800.350	68.8547
800.254	68.8534
800.357	68.8522
800.291	68.8511
800.274	68.8501
800.166	68.8491
800.067	68.8484
800.110	68.8466
800.267	68.8458
800.371	68.8447
800.370	68.8436
800.327	68.8428
800.220	68.8413
800.130	68.8404
800.131	68.8394
800.170	68.8379
800.182	68.8368
800.401	68.8360
800.631	68.8350
800.501	68.8335
800.316	68.8324
800.351	68.8314
800.375	68.8304
800.256	68.8291
800.298	68.8281
800.093	68.8267
800.099	68.8257
800.079	68.8246
800.070	68.8236
800.078	68.8224
800.079	68.8213
799.892	68.8202
799.662	68.8193
799.675	68.8183
799.810	68.8172
799.915	68.8160
799.855	68.8150
800.115	68.8139
800.112	68.8128
800.113	68.8115
800.224	68.8109
800.228	68.8095
800.170	68.8086
800.296	68.8071
800.349	68.8060
800.391	68.8045
800.421	68.8037
800.332	68.8026
800.239	68.8015
800.221	68.8003
800.287	68.7991
800.188	68.7978
800.247	68.7967
800.233	68.7955
800.251	68.7943
800.325	68.7935
800.310	68.7924
800.180	68.7914
800.044	68.7900
799.982	68.7888
800.125	68.7879
800.263	68.7867
800.193	68.7861
800.262	68.7848
800.283	68.7836
800.189	68.7827
800.177	68.7814
800.178	68.7803
800.279	68.7789
800.242	68.7769
800.232	68.7765
800.197	68.7759
800.155	68.7746
800.050	68.7731
800.015	68.7721
800.005	68.7713
799.958	68.7693
799.964	68.7685
799.942	68.7676
799.826	68.7667
799.928	68.7656
799.970	68.7643
799.921	68.7628
799.949	68.7619
799.909	68.7608
800.012	68.7598
800.071	68.7588
800.101	68.7576
800.057	68.7560
800.071	68.7551
800.051	68.7543
800.083	68.7534
800.153	68.7520
800.096	68.7507
800.023	68.7498
800.084	68.7486
800.118	68.7471
800.141	68.7464
800.181	68.7451
800.001	68.7436
799.850	68.7427
799.921	68.7422
799.920	68.7409
800.094	68.7397
800.150	68.7383
800.222	68.7374
800.282	68.7359
800.170	68.7350
799.954	68.7341
800.062	68.7330
799.931	68.7318
799.707	68.7304
799.911	68.7299
799.801	68.7283
799.654	68.7273
799.767	68.7261
799.882	68.7250
799.923	68.7239
799.883	68.7225
799.819	68.7216
799.823	68.7206
799.862	68.7194
800.060	68.7182
799.951	68.7171
799.868	68.7162
799.925	68.7145
799.881	68.7135
799.822	68.7125
799.822	68.7114
799.869	68.7099
799.738	68.7089
799.562	68.7076
799.502	68.7070
799.451	68.7056
799.533	68.7045
799.464	68.7033
799.298	68.7021
799.430	68.7012