File: data_plotting/tga/Ag2_8_31_16_%vtime.txt
Filename:	D:\Users\Thermal_Users\LeBlanc\Ag2_8_31_16.tg1d

Time (min)	Weight % (%)
0.000	99.9922
6.667e-002	100.0136
0.133	100.0217
0.200	100.0237
0.267	99.9993
0.333	100.0030
0.400	99.9968
0.467	99.9930
0.533	99.9949
0.600	99.9930
0.667	99.9938
0.733	100.0050
0.800	100.0024
0.867	99.9905
0.933	99.9874
1.000	99.9871
1.067	99.9906
1.133	100.0156
1.200	100.0353
1.267	100.0369
1.333	100.0195
1.400	100.0097
1.467	99.9901
1.533	99.9856
1.600	99.9871
1.667	99.9883
1.733	99.9574
1.800	99.9460
1.867	99.9167
1.933	99.8876
2.000	99.8625
2.067	99.8355
2.133	99.8028
2.200	99.7838
2.267	99.7925
2.333	99.7420
2.400	99.7067
2.467	99.6728
2.533	99.6451
2.600	99.6175
2.667	99.5948
2.733	99.5728
2.800	99.5484
2.867	99.5241
2.933	99.4925
3.000	99.4722
3.067	99.4537
3.133	99.4281
3.200	99.4077
3.267	99.3844
3.333	99.3636
3.400	99.3409
3.467	99.3208
3.533	99.3004
3.600	99.2801
3.667	99.2565
3.733	99.2363
3.800	99.2136
3.867	99.1996
3.933	99.2087
4.000	99.1951
4.067	99.1765
4.133	99.1509
4.200	99.1193
4.267	99.1301
4.333	99.0941
4.400	99.0570
4.467	99.0465
4.533	99.0142
4.600	98.9909
4.667	98.9860
4.733	98.9612
4.800	98.9374
4.867	98.9125
4.933	98.9214
5.000	98.8830
5.067	98.8518
5.133	98.8595
5.200	98.8381
5.267	98.8087
5.333	98.7655
5.400	98.7718
5.467	98.7608
5.533	98.7352
5.600	98.7137
5.667	98.7064
5.733	98.6697
5.800	98.6758
5.867	98.6626
5.933	98.6319
6.000	98.6305
6.067	98.6060
6.133	98.5875
6.200	98.5568
6.267	98.5506
6.333	98.5354
6.400	98.5275
6.467	98.5114
6.533	98.5011
6.600	98.4808
6.667	98.4591
6.733	98.4493
6.800	98.4303
6.867	98.4153
6.933	98.3957
7.000	98.3766
7.067	98.3739
7.133	98.3667
7.200	98.3474
7.267	98.3309
7.333	98.3073
7.400	98.3062
7.467	98.2825
7.533	98.2654
7.600	98.2653
7.667	98.2548
7.733	98.2368
7.800	98.2253
7.867	98.2071
7.933	98.1901
8.000	98.1729
8.067	98.1655
8.133	98.1601
8.200	98.1436
8.267	98.1303
8.333	98.1207
8.400	98.1223
8.467	98.0966
8.533	98.0812
8.600	98.0742
8.667	98.0618
8.733	98.0469
8.800	98.0486
8.867	98.0244
8.933	98.0122
9.000	97.9977
9.067	97.9889
9.133	97.9746
9.200	97.9602
9.267	97.9571
9.333	97.9401
9.400	97.9250
9.467	97.9180
9.533	97.9120
9.600	97.8962
9.667	97.8862
9.733	97.8737
9.800	97.8537
9.867	97.8501
9.933	97.8254
10.000	97.8201
10.067	97.8153
10.133	97.7955
10.200	97.7990
10.267	97.8074
10.333	97.7787
10.400	97.7609
10.467	97.7463
10.533	97.7422
10.600	97.7340
10.667	97.7233
10.733	97.7119
10.800	97.6983
10.867	97.6759
10.933	97.6680
11.000	97.6731
11.067	97.6680
11.133	97.6577
11.200	97.6390
11.267	97.6316
11.333	97.6240
11.400	97.6141
11.467	97.6058
11.533	97.5866
11.600	97.5767
11.667	97.5723
11.733	97.5596
11.800	97.5586
11.867	97.5443
11.933	97.5344
12.000	97.5309
12.067	97.5189
12.133	97.5123
12.200	97.5111
12.267	97.5001
12.333	97.4937
12.400	97.4783
12.467	97.4695
12.533	97.4604
12.600	97.4510
12.667	97.4516
12.733	97.4360
12.800	97.4320
12.867	97.4310
12.933	97.4212
13.000	97.4081
13.067	97.3920
13.133	97.3846
13.200	97.3759
13.267	97.3746
13.333	97.3724
13.400	97.3510
13.467	97.3513
13.533	97.3532
13.600	97.3399
13.667	97.3334
13.733	97.3360
13.800	97.3277
13.867	97.3189
13.933	97.3143
14.000	97.2906
14.067	97.2833
14.133	97.2717
14.200	97.2840
14.267	97.2750
14.333	97.2638
14.400	97.2644
14.467	97.2489
14.533	97.2417
14.600	97.2311
14.667	97.2230
14.733	97.2136
14.800	97.2227
14.867	97.2016
14.933	97.2036
15.000	97.1882
15.067	97.1794
15.133	97.1816
15.200	97.1657
15.267	97.1622
15.333	97.1545
15.400	97.1463
15.467	97.1508
15.533	97.1380
15.600	97.1312
15.667	97.1132
15.733	97.1077
15.800	97.1249
15.867	97.1212
15.933	97.1052
16.000	97.0881
16.067	97.0782
16.133	97.0774
16.200	97.0702
16.267	97.0644
16.333	97.0649
16.400	97.0542
16.467	97.0521
16.533	97.0398
16.600	97.0331
16.667	97.0315
16.733	97.0423
16.800	97.0315
16.867	97.0099
16.933	97.0163
17.000	97.0206
17.067	97.0085
17.133	96.9897
17.200	96.9683
17.267	96.9513
17.333	96.9299
17.400	96.9015
17.467	96.8711
17.533	96.8313
17.600	96.7982
17.667	96.7488
17.733	96.6896
17.800	96.6246
17.867	96.5550
17.933	96.4889
18.000	96.4178
18.067	96.3609
18.133	96.3057
18.200	96.2419
18.267	96.1987
18.333	96.1498
18.400	96.0907
18.467	96.0464
18.533	96.0357
18.600	95.9706
18.667	95.9265
18.733	95.8864
18.800	95.8670
18.867	95.8334
18.933	95.8021
19.000	95.7650
19.067	95.7368
19.133	95.7066
19.200	95.6721
19.267	95.6535
19.333	95.6284
19.400	95.6008
19.467	95.5759
19.533	95.5584
19.600	95.5430
19.667	95.5173
19.733	95.4892
19.800	95.4601
19.867	95.4445
19.933	95.4169
20.000	95.3932
20.067	95.3885
20.133	95.3659
20.200	95.3509
20.267	95.3334
20.333	95.3010
20.400	95.2930
20.467	95.2712
20.533	95.2502
20.600	95.2350
20.667	95.2264
20.733	95.2072
20.800	95.1939
20.867	95.1791
20.933	95.1548
21.000	95.1415
21.067	95.1234
21.133	95.1130
21.200	95.0836
21.267	95.0796
21.333	95.0697
21.400	95.0502
21.467	95.0288
21.533	95.0295
21.600	95.0160
21.667	94.9919
21.733	94.9874
21.800	94.9715
21.867	94.9612
21.933	94.9454
22.000	94.9254
22.067	94.9090
22.133	94.8988
22.200	94.8872
22.267	94.8822
22.333	94.8698
22.400	94.8544
22.467	94.8535
22.533	94.8448
22.600	94.8266
22.667	94.8182
22.733	94.8096
22.800	94.7918
22.867	94.7763
22.933	94.7735
23.000	94.7547
23.067	94.7449
23.133	94.7379
23.200	94.7298
23.267	94.7212
23.333	94.7085
23.400	94.6921
23.467	94.6841
23.533	94.6709
23.600	94.6626
23.667	94.6567
23.733	94.6472
23.800	94.6331
23.867	94.6283
23.933	94.6200
24.000	94.6135
24.067	94.6078
24.133	94.5959
24.200	94.5874
24.267	94.5756
24.333	94.5713
24.400	94.5629
24.467	94.5551
24.533	94.5435
24.600	94.5411
24.667	94.5305
24.733	94.5198
24.800	94.5070
24.867	94.5053
24.933	94.4976
25.000	94.4809
25.067	94.4813
25.133	94.4707
25.200	94.4639
25.267	94.4552
25.333	94.4479
25.400	94.4385
25.467	94.4290
25.533	94.4235
25.600	94.4129
25.667	94.4087
25.733	94.3969
25.800	94.3927
25.867	94.3853
25.933	94.3829
26.000	94.3793
26.067	94.3665
26.133	94.3627
26.200	94.3539
26.267	94.3497
26.333	94.3425
26.400	94.3355
26.467	94.3316
26.533	94.3229
26.600	94.3153
26.667	94.3119
26.733	94.3054
26.800	94.3031
26.867	94.2911
26.933	94.2880
27.000	94.2815
27.067	94.2785
27.133	94.2709
27.200	94.2587
27.267	94.2524
27.333	94.2505
27.400	94.2439
27.467	94.2389
27.533	94.2338
27.600	94.2281
27.667	94.2200
27.733	94.2152
27.800	94.2061
27.867	94.2032
27.933	94.1946
28.000	94.1940
28.067	94.1885
28.133	94.1807
28.200	94.1804
28.267	94.1739
28.333	94.1698
28.400	94.1653
28.467	94.1572
28.533	94.1567
28.600	94.1421
28.667	94.1355
28.733	94.1420
28.800	94.1353
28.867	94.1340
28.933	94.1280
29.000	94.1229
29.067	94.1146
29.133	94.1137
29.200	94.0997
29.267	94.1011
29.333	94.0960
29.400	94.0948
29.467	94.0889
29.533	94.0887
29.600	94.0777
29.667	94.0756
29.733	94.0716
29.800	94.0697
29.867	94.0622
29.933	94.0564
30.000	94.0500
30.067	94.0526
30.133	94.0429
30.200	94.0410
30.267	94.0319
30.333	94.0334
30.400	94.0286
30.467	94.0230
30.533	94.0192
30.600	94.0141
30.667	94.0122
30.733	94.0066
30.800	93.9960
30.867	93.9980
30.933	93.9985
31.000	93.9911
31.067	93.9890
31.133	93.9847
31.200	93.9777
31.267	93.9717
31.333	93.9743
31.400	93.9660
31.467	93.9604
31.533	93.9616
31.600	93.9586
31.667	93.9574
31.733	93.9503
31.800	93.9425
31.867	93.9447
31.933	93.9458
32.000	93.9350
32.067	93.9408
32.133	93.9387
32.200	93.9223
32.267	93.9210
32.333	93.9162
32.400	93.9150
32.467	93.9062
32.533	93.9043
32.600	93.9087
32.667	93.9052
32.733	93.9028
32.800	93.8958
32.867	93.8967
32.933	93.8934
33.000	93.8886
33.067	93.8857
33.133	93.8869
33.200	93.8787
33.267	93.8792
33.333	93.8806
33.400	93.8767
33.467	93.8708
33.533	93.8644
33.600	93.8629
33.667	93.8596
33.733	93.8540
33.800	93.8580
33.867	93.8508
33.933	93.8485
34.000	93.8460
34.067	93.8488
34.133	93.8390
34.200	93.8349
34.267	93.8367
34.333	93.8267
34.400	93.8298
34.467	93.8262
34.533	93.8244
34.600	93.8216
34.667	93.8215
34.733	93.8180
34.800	93.8156
34.867	93.8162
34.933	93.8111
35.000	93.8070
35.067	93.8041
35.133	93.7994
35.200	93.7978
35.267	93.7986
35.333	93.7950
35.400	93.7937
35.467	93.7862
35.533	93.7862
35.600	93.7895
35.667	93.7827
35.733	93.7758
35.800	93.7814
35.867	93.7766
35.933	93.7746
36.000	93.7749
36.067	93.7738
36.133	93.7676
36.200	93.7647
36.267	93.7584
36.333	93.7562
36.400	93.7567
36.467	93.7508
36.533	93.7562
36.600	93.7546
36.667	93.7479
36.733	93.7441
36.800	93.7475
36.867	93.7399
36.933	93.7385
37.000	93.7429
37.067	93.7355
37.133	93.7330
37.200	93.7355
37.267	93.7358
37.333	93.7341
37.400	93.7284
37.467	93.7290
37.533	93.7248
37.600	93.7183
37.667	93.7199
37.733	93.7216
37.800	93.7143
37.867	93.7182
37.933	93.7133
38.000	93.7130
38.067	93.7113
38.133	93.7060
38.200	93.7088
38.267	93.7036
38.333	93.6972
38.400	93.6908
38.467	93.6945
38.533	93.6894
38.600	93.6883
38.667	93.6888
38.733	93.6896
38.800	93.6917
38.867	93.6871
38.933	93.6826
39.000	93.6834
39.067	93.6764
39.133	93.6746
39.200	93.6756
39.267	93.6723
39.333	93.6741
39.400	93.6641
39.467	93.6642
39.533	93.6659
39.600	93.6645
39.667	93.6638
39.733	93.6568
39.800	93.6595
39.867	93.6634
39.933	93.6579
40.000	93.6542
40.067	93.6563
40.133	93.6632
40.200	93.6548
40.267	93.6499
40.333	93.6471
40.400	93.6443
40.467	93.6446
40.533	93.6426
40.600	93.6431
40.667	93.6375
40.733	93.6361
40.800	93.6341
40.867	93.6325
40.933	93.6397
41.000	93.6314
41.067	93.6339
41.133	93.6282
41.200	93.6299
41.267	93.6253
41.333	93.6254
41.400	93.6200
41.467	93.6255
41.533	93.6198
41.600	93.6208
41.667	93.6185
41.733	93.6160
41.800	93.6113
41.867	93.6119
41.933	93.6113
42.000	93.6083
42.067	93.6080
42.133	93.6079
42.200	93.6038
42.267	93.6078
42.333	93.6023
42.400	93.6008
42.467	93.5962
42.533	93.6008
42.600	93.5974
42.667	93.5923
42.733	93.5908
42.800	93.5926
42.867	93.5875
42.933	93.5883
43.000	93.5868
43.067	93.5838
43.133	93.5852
43.200	93.5824
43.267	93.5832
43.333	93.5806
43.400	93.5793
43.467	93.5750
43.533	93.5768
43.600	93.5720
43.667	93.5687
43.733	93.5725
43.800	93.5707
43.867	93.5742
43.933	93.5687
44.000	93.5695
44.067	93.5659
44.133	93.5653
44.200	93.5637
44.267	93.5614
44.333	93.5607
44.400	93.5602
44.467	93.5573
44.533	93.5557
44.600	93.5559
44.667	93.5605
44.733	93.5529
44.800	93.5490
44.867	93.5526
44.933	93.5509
45.000	93.5489
45.067	93.5459
45.133	93.5486
45.200	93.5468
45.267	93.5491
45.333	93.5431
45.400	93.5418
45.467	93.5400
45.533	93.5352
45.600	93.5399
45.667	93.5408
45.733	93.5383
45.800	93.5332
45.867	93.5397
45.933	93.5334
46.000	93.5330
46.067	93.5322
46.133	93.5299
46.200	93.5303
46.267	93.5273
46.333	93.5295
46.400	93.5220
46.467	93.5247
46.533	93.5168
46.600	93.5260
46.667	93.5210
46.733	93.5198
46.800	93.5156
46.867	93.5132
46.933	93.5137
47.000	93.5168
47.067	93.5109
47.133	93.5107
47.200	93.5126
47.267	93.5093
47.333	93.5055
47.400	93.5071
47.467	93.5061
47.533	93.5061
47.600	93.5031
47.667	93.5025
47.733	93.5046
47.800	93.5006
47.867	93.5026
47.933	93.5010
48.000	93.4972
48.067	93.4954
48.133	93.4928
48.200	93.4902
48.267	93.4839
48.333	93.4796
48.400	93.4747
48.467	93.4706
48.533	93.4668
48.600	93.4615
48.667	93.4570
48.733	93.4530
48.800	93.4485
48.867	93.4447
48.933	93.4405
49.000	93.4368
49.067	93.4332
49.133	93.4290
49.200	93.4254
49.267	93.4221
49.333	93.4187
49.400	93.4150
49.467	93.4114
49.533	93.4078
49.600	93.4044
49.667	93.4008
49.733	93.3975
49.800	93.3945
49.867	93.3913
49.933	93.3882
50.000	93.3848
50.067	93.3814
50.133	93.3785
50.200	93.3753
50.267	93.3723
50.333	93.3685
50.400	93.3663
50.467	93.3632
50.533	93.3605
50.600	93.3572
50.667	93.3541
50.733	93.3516
50.800	93.3487
50.867	93.3452
50.933	93.3424
51.000	93.3395
51.067	93.3372
51.133	93.3344
51.200	93.3318
51.267	93.3289
51.333	93.3264
51.400	93.3245
51.467	93.3222
51.533	93.3187
51.600	93.3160
51.667	93.3140
51.733	93.3109
51.800	93.3084
51.867	93.3061
51.933	93.3031
52.000	93.3011
52.067	93.2991
52.133	93.2968
52.200	93.2941
52.267	93.2922
52.333	93.2890
52.400	93.2872
52.467	93.2845
52.533	93.2822
52.600	93.2796
52.667	93.2775
52.733	93.2754
52.800	93.2734
52.867	93.2711
52.933	93.2689
53.000	93.2665
53.067	93.2644
53.133	93.2624
53.200	93.2604
53.267	93.2583
53.333	93.2561
53.400	93.2542
53.467	93.2522
53.533	93.2504
53.600	93.2485
53.667	93.2457
53.733	93.2441
53.800	93.2421
53.867	93.2403
53.933	93.2382
54.000	93.2365
54.067	93.2350
54.133	93.2327
54.200	93.2310
54.267	93.2286
54.333	93.2271
54.400	93.2248
54.467	93.2230
54.533	93.2215
54.600	93.2195
54.667	93.2175
54.733	93.2159
54.800	93.2142
54.867	93.2123
54.933	93.2108
55.000	93.2091
55.067	93.2082
55.133	93.2055
55.200	93.2030
55.267	93.2018
55.333	93.2003
55.400	93.1988
55.467	93.1971
55.533	93.1955
55.600	93.1938
55.667	93.1927
55.733	93.1901
55.800	93.1889
55.867	93.1875
55.933	93.1859
56.000	93.1847
56.067	93.1828
56.133	93.1814
56.200	93.1799
56.267	93.1790
56.333	93.1773
56.400	93.1760
56.467	93.1743
56.533	93.1725
56.600	93.1712
56.667	93.1698
56.733	93.1680
56.800	93.1666
56.867	93.1650
56.933	93.1634
57.000	93.1618
57.067	93.1606
57.133	93.1596
57.200	93.1580
57.267	93.1568
57.333	93.1553
57.400	93.1534
57.467	93.1526
57.533	93.1514
57.600	93.1505
57.667	93.1491
57.733	93.1473
57.800	93.1456
57.867	93.1443
57.933	93.1433
58.000	93.1414
58.067	93.1402
58.133	93.1391
58.200	93.1376
58.267	93.1365
58.333	93.1357
58.400	93.1344
58.467	93.1331
58.533	93.1317
58.600	93.1303
58.667	93.1293
58.733	93.1279
58.800	93.1266
58.867	93.1252
58.933	93.1242
59.000	93.1224
59.067	93.1217
59.133	93.1203
59.200	93.1192
59.267	93.1179
59.333	93.1165
59.400	93.1152
59.467	93.1139
59.533	93.1121
59.600	93.1111
59.667	93.1096
59.733	93.1092
59.800	93.1084
59.867	93.1063
59.933	93.1049
60.000	93.1039
60.067	93.1040
60.133	93.1023
60.200	93.1004
60.267	93.0994
60.333	93.0982
60.400	93.0972
60.467	93.0954
60.533	93.0946
60.600	93.0935
60.667	93.0927
60.733	93.0913
60.800	93.0903
60.867	93.0890
60.933	93.0881
61.000	93.0869
61.067	93.0862
61.133	93.0845
61.200	93.0835
61.267	93.0825
61.333	93.0816
61.400	93.0806
61.467	93.0795
61.533	93.0787
61.600	93.0777
61.667	93.0766
61.733	93.0754
61.800	93.0744
61.867	93.0735
61.933	93.0722
62.000	93.0709
62.067	93.0698
62.133	93.0689
62.200	93.0679
62.267	93.0668
62.333	93.0655
62.400	93.0651
62.467	93.0645
62.533	93.0626
62.600	93.0615
62.667	93.0605
62.733	93.0599
62.800	93.0587
62.867	93.0581
62.933	93.0570
63.000	93.0554
63.067	93.0551
63.133	93.0539
63.200	93.0527
63.267	93.0516
63.333	93.0504
63.400	93.0497
63.467	93.0491
63.533	93.0488
63.600	93.0473
63.667	93.0461
63.733	93.0452
63.800	93.0447
63.867	93.0432
63.933	93.0421
64.000	93.0416
64.067	93.0403
64.133	93.0396
64.200	93.0386
64.267	93.0370
64.333	93.0364
64.400	93.0356
64.467	93.0347
64.533	93.0336
64.600	93.0330
64.667	93.0320
64.733	93.0309
64.800	93.0303
64.867	93.0298
64.933	93.0286
65.000	93.0273
65.067	93.0263
65.133	93.0262
65.200	93.0256
65.267	93.0246
65.333	93.0239
65.400	93.0225
65.467	93.0216
65.533	93.0205
65.600	93.0200
65.667	93.0193
65.733	93.0179
65.800	93.0176
65.867	93.0171
65.933	93.0157
66.000	93.0146
66.067	93.0136
66.133	93.0130
66.200	93.0125
66.267	93.0117
66.333	93.0108
66.400	93.0093
66.467	93.0085
66.533	93.0077
66.600	93.0068
66.667	93.0064
66.733	93.0054
66.800	93.0036
66.867	93.0032
66.933	93.0026
67.000	93.0024
67.067	93.0015
67.133	93.0004
67.200	92.9996
67.267	92.9989
67.333	92.9987
67.400	92.9979
67.467	92.9968
67.533	92.9962
67.600	92.9953
67.667	92.9941
67.733	92.9933
67.800	92.9931
67.867	92.9918
67.933	92.9915
68.000	92.9908
68.067	92.9897
68.133	92.9893
68.200	92.9888
68.267	92.9880
68.333	92.9872
68.400	92.9865
68.467	92.9863
68.533	92.9854
68.600	92.9843
68.667	92.9835
68.733	92.9830
68.800	92.9821
68.867	92.9809
68.933	92.9806
69.000	92.9801
69.067	92.9795
69.133	92.9788
69.200	92.9785
69.267	92.9773
69.333	92.9764
69.400	92.9759
69.467	92.9748
69.533	92.9742
69.600	92.9731
69.667	92.9724
69.733	92.9716
69.800	92.9710
69.867	92.9704
69.933	92.9697
70.000	92.9690
70.067	92.9684
70.133	92.9674
70.200	92.9666
70.267	92.9659
70.333	92.9649
70.400	92.9641
70.467	92.9634
70.533	92.9628
70.600	92.9629
70.667	92.9616
70.733	92.9604
70.800	92.9594
70.867	92.9587
70.933	92.9583
71.000	92.9578
71.067	92.9569
71.133	92.9564
71.200	92.9561
71.267	92.9548
71.333	92.9539
71.400	92.9535
71.467	92.9528
71.533	92.9522
71.600	92.9517
71.667	92.9509
71.733	92.9497
71.800	92.9490
71.867	92.9482
71.933	92.9482
72.000	92.9474
72.067	92.9463
72.133	92.9457
72.200	92.9452
72.267	92.9442
72.333	92.9437
72.400	92.9431
72.467	92.9423
72.533	92.9418
72.600	92.9406
72.667	92.9400
72.733	92.9395
72.800	92.9388
72.867	92.9381
72.933	92.9373
73.000	92.9363
73.067	92.9359
73.133	92.9356
73.200	92.9348
73.267	92.9342
73.333	92.9334
73.400	92.9337
73.467	92.9326
73.533	92.9319
73.600	92.9306
73.667	92.9306
73.733	92.9297
73.800	92.9290
73.867	92.9285
73.933	92.9280
74.000	92.9281
74.067	92.9274
74.133	92.9264
74.200	92.9258
74.267	92.9247
74.333	92.9242
74.400	92.9234
74.467	92.9226
74.533	92.9222
74.600	92.9215
74.667	92.9214
74.733	92.9207
74.800	92.9198
74.867	92.9193
74.933	92.9183
75.000	92.9179
75.067	92.9172
75.133	92.9161
75.200	92.9160
75.267	92.9150
75.333	92.9143
75.400	92.9137
75.467	92.9130
75.533	92.9122
75.600	92.9116
75.667	92.9107
75.733	92.9104
75.800	92.9101
75.867	92.9094
75.933	92.9090
76.000	92.9086
76.067	92.9079
76.133	92.9077
76.200	92.9068
76.267	92.9061
76.333	92.9049
76.400	92.9046
76.467	92.9045
76.533	92.9038
76.600	92.9030
76.667	92.9025
76.733	92.9016
76.800	92.9012
76.867	92.9002
76.933	92.9000
77.000	92.9001
77.067	92.8991
77.133	92.8982
77.200	92.8976
77.267	92.8973
77.333	92.8970
77.400	92.8963
77.467	92.8965
77.533	92.8951
77.600	92.8943
77.667	92.8938
77.733	92.8934
77.800	92.8927
77.867	92.8922
77.933	92.8912
78.000	92.8910
78.067	92.8907
78.100	92.8902