File: data_plotting/tga/Ag2_8_31_16_%vtemp.txt
Filename:	D:\Users\Thermal_Users\LeBlanc\Ag2_8_31_16.tg1d

Temperature (°C)	Weight % (%)
26.199	99.9922
26.561	100.0136
26.942	100.0217
27.217	100.0237
27.395	99.9993
27.509	100.0030
27.586	99.9968
27.640	99.9930
27.678	99.9949
27.705	99.9930
27.726	99.9938
27.742	100.0050
27.754	100.0024
27.764	99.9905
27.770	99.9874
27.776	99.9871
27.834	99.9906
29.232	100.0156
32.450	100.0353
16.529	100.0369
23.770	100.0195
38.258	100.0097
50.601	99.9901
61.436	99.9856
71.314	99.9871
80.564	99.9883
87.436	99.9574
93.951	99.9460
98.120	99.9167
100.858	99.8876
102.781	99.8625
104.216	99.8355
105.315	99.8028
106.180	99.7838
106.887	99.7925
107.500	99.7420
107.991	99.7067
108.376	99.6728
108.659	99.6451
108.852	99.6175
109.003	99.5948
109.116	99.5728
109.218	99.5484
109.345	99.5241
109.417	99.4925
109.379	99.4722
109.334	99.4537
109.318	99.4281
109.295	99.4077
109.300	99.3844
109.326	99.3636
109.344	99.3409
109.379	99.3208
109.413	99.3004
109.417	99.2801
109.428	99.2565
109.467	99.2363
109.576	99.2136
109.656	99.1996
109.736	99.2087
109.791	99.1951
109.806	99.1765
109.799	99.1509
109.803	99.1193
109.806	99.1301
109.822	99.0941
109.847	99.0570
109.858	99.0465
109.875	99.0142
109.891	98.9909
109.903	98.9860
109.917	98.9612
109.932	98.9374
109.938	98.9125
109.942	98.9214
109.948	98.8830
109.955	98.8518
109.946	98.8595
109.937	98.8381
109.932	98.8087
109.936	98.7655
109.936	98.7718
109.938	98.7608
109.964	98.7352
109.941	98.7137
109.906	98.7064
109.875	98.6697
109.860	98.6758
109.858	98.6626
109.867	98.6319
109.861	98.6305
109.829	98.6060
109.807	98.5875
109.802	98.5568
109.803	98.5506
109.809	98.5354
109.814	98.5275
109.813	98.5114
109.791	98.5011
109.779	98.4808
109.771	98.4591
109.781	98.4493
109.778	98.4303
109.761	98.4153
109.752	98.3957
109.755	98.3766
109.752	98.3739
109.759	98.3667
109.744	98.3474
109.740	98.3309
109.726	98.3073
109.705	98.3062
109.682	98.2825
109.655	98.2654
109.595	98.2653
109.536	98.2548
109.527	98.2368
109.534	98.2253
109.532	98.2071
109.540	98.1901
109.555	98.1729
109.556	98.1655
109.557	98.1601
109.547	98.1436
109.527	98.1303
109.515	98.1207
109.490	98.1223
109.486	98.0966
109.481	98.0812
109.474	98.0742
109.454	98.0618
109.444	98.0469
109.430	98.0486
109.424	98.0244
109.426	98.0122
109.434	97.9977
109.419	97.9889
109.412	97.9746
109.407	97.9602
109.407	97.9571
109.401	97.9401
109.384	97.9250
109.389	97.9180
109.414	97.9120
109.419	97.8962
109.412	97.8862
109.416	97.8737
109.422	97.8537
109.440	97.8501
109.432	97.8254
109.409	97.8201
109.392	97.8153
109.365	97.7955
109.317	97.7990
109.266	97.8074
109.225	97.7787
109.201	97.7609
109.213	97.7463
109.229	97.7422
109.241	97.7340
109.250	97.7233
109.253	97.7119
109.219	97.6983
109.222	97.6759
109.211	97.6680
109.204	97.6731
109.188	97.6680
109.155	97.6577
109.130	97.6390
109.121	97.6316
109.111	97.6240
109.096	97.6141
109.105	97.6058
109.115	97.5866
109.116	97.5767
109.131	97.5723
109.139	97.5596
109.146	97.5586
109.132	97.5443
109.109	97.5344
109.120	97.5309
109.123	97.5189
109.121	97.5123
109.117	97.5111
109.109	97.5001
109.085	97.4937
109.102	97.4783
109.132	97.4695
109.168	97.4604
109.199	97.4510
109.218	97.4516
109.174	97.4360
109.150	97.4320
109.166	97.4310
109.168	97.4212
109.183	97.4081
109.200	97.3920
109.214	97.3846
109.208	97.3759
109.201	97.3746
109.197	97.3724
109.211	97.3510
109.218	97.3513
109.228	97.3532
109.225	97.3399
109.208	97.3334
109.193	97.3360
109.185	97.3277
109.173	97.3189
109.147	97.3143
109.162	97.2906
109.155	97.2833
109.119	97.2717
109.113	97.2840
109.144	97.2750
109.164	97.2638
109.183	97.2644
109.215	97.2489
109.234	97.2417
109.246	97.2311
109.240	97.2230
109.236	97.2136
109.232	97.2227
109.234	97.2016
109.253	97.2036
109.254	97.1882
109.239	97.1794
109.219	97.1816
109.206	97.1657
109.199	97.1622
109.187	97.1545
109.191	97.1463
109.192	97.1508
109.186	97.1380
109.205	97.1312
109.214	97.1132
109.228	97.1077
109.244	97.1249
109.237	97.1212
109.247	97.1052
109.255	97.0881
109.262	97.0782
109.269	97.0774
109.262	97.0702
109.277	97.0644
109.284	97.0649
109.292	97.0542
109.283	97.0521
109.276	97.0398
109.251	97.0331
109.254	97.0315
109.539	97.0423
111.407	97.0315
115.294	97.0099
120.423	97.0163
126.286	97.0206
132.589	97.0085
139.160	96.9897
145.964	96.9683
152.893	96.9513
159.781	96.9299
166.542	96.9015
173.206	96.8711
179.824	96.8313
186.525	96.7982
193.209	96.7488
198.489	96.6896
201.590	96.6246
203.477	96.5550
204.746	96.4889
205.686	96.4178
206.439	96.3609
207.047	96.3057
207.531	96.2419
207.900	96.1987
208.220	96.1498
208.494	96.0907
208.701	96.0464
208.864	96.0357
208.992	95.9706
209.135	95.9265
209.235	95.8864
209.314	95.8670
209.454	95.8334
209.574	95.8021
209.619	95.7650
209.648	95.7368
209.669	95.7066
209.683	95.6721
209.687	95.6535
209.688	95.6284
209.739	95.6008
209.786	95.5759
209.802	95.5584
209.823	95.5430
209.816	95.5173
209.796	95.4892
209.725	95.4601
209.628	95.4445
209.593	95.4169
209.590	95.3932
209.597	95.3885
209.583	95.3659
209.588	95.3509
209.604	95.3334
209.594	95.3010
209.557	95.2930
209.551	95.2712
209.551	95.2502
209.549	95.2350
209.539	95.2264
209.563	95.2072
209.575	95.1939
209.550	95.1791
209.527	95.1548
209.497	95.1415
209.475	95.1234
209.458	95.1130
209.454	95.0836
209.458	95.0796
209.461	95.0697
209.462	95.0502
209.462	95.0288
209.458	95.0295
209.461	95.0160
209.483	94.9919
209.508	94.9874
209.497	94.9715
209.505	94.9612
209.532	94.9454
209.541	94.9254
209.505	94.9090
209.461	94.8988
209.416	94.8872
209.400	94.8822
209.394	94.8698
209.440	94.8544
209.534	94.8535
209.592	94.8448
209.558	94.8266
209.497	94.8182
209.446	94.8096
209.434	94.7918
209.412	94.7763
209.361	94.7735
209.321	94.7547
209.326	94.7449
209.364	94.7379
209.364	94.7298
209.334	94.7212
209.249	94.7085
209.215	94.6921
209.199	94.6841
209.198	94.6709
209.229	94.6626
209.263	94.6567
209.247	94.6472
209.208	94.6331
209.159	94.6283
209.134	94.6200
209.118	94.6135
209.140	94.6078
209.150	94.5959
209.161	94.5874
209.190	94.5756
209.216	94.5713
209.206	94.5629
209.193	94.5551
209.200	94.5435
209.219	94.5411
209.224	94.5305
209.227	94.5198
209.209	94.5070
209.159	94.5053
209.123	94.4976
209.117	94.4809
209.131	94.4813
209.137	94.4707
209.064	94.4639
208.974	94.4552
208.957	94.4479
209.066	94.4385
209.134	94.4290
209.180	94.4235
209.202	94.4129
209.172	94.4087
209.169	94.3969
209.177	94.3927
209.155	94.3853
209.192	94.3829
209.206	94.3793
209.184	94.3665
209.181	94.3627
209.168	94.3539
209.172	94.3497
209.154	94.3425
209.031	94.3355
208.933	94.3316
208.869	94.3229
208.868	94.3153
208.786	94.3119
208.696	94.3054
208.613	94.3031
208.475	94.2911
208.340	94.2880
208.328	94.2815
208.336	94.2785
208.338	94.2709
208.349	94.2587
208.335	94.2524
208.281	94.2505
208.252	94.2439
208.253	94.2389
208.273	94.2338
208.269	94.2281
208.265	94.2200
208.272	94.2152
208.217	94.2061
208.241	94.2032
208.317	94.1946
208.365	94.1940
208.378	94.1885
208.383	94.1807
208.353	94.1804
208.378	94.1739
208.538	94.1698
208.667	94.1653
208.734	94.1572
208.774	94.1567
208.803	94.1421
208.837	94.1355
208.888	94.1420
208.931	94.1353
208.907	94.1340
208.860	94.1280
208.893	94.1229
208.930	94.1146
208.945	94.1137
208.924	94.0997
208.870	94.1011
208.837	94.0960
208.859	94.0948
208.875	94.0889
208.887	94.0887
208.887	94.0777
208.882	94.0756
208.882	94.0716
208.869	94.0697
208.852	94.0622
208.850	94.0564
208.873	94.0500
208.868	94.0526
208.834	94.0429
208.812	94.0410
208.808	94.0319
208.810	94.0334
208.812	94.0286
208.828	94.0230
208.844	94.0192
208.846	94.0141
208.860	94.0122
208.860	94.0066
208.835	93.9960
208.826	93.9980
208.820	93.9985
208.795	93.9911
208.777	93.9890
208.788	93.9847
208.805	93.9777
208.846	93.9717
208.831	93.9743
208.828	93.9660
208.842	93.9604
208.810	93.9616
208.730	93.9586
208.701	93.9574
208.739	93.9503
208.760	93.9425
208.751	93.9447
208.739	93.9458
208.724	93.9350
208.724	93.9408
208.705	93.9387
208.678	93.9223
208.638	93.9210
208.609	93.9162
208.613	93.9150
208.649	93.9062
208.709	93.9043
208.726	93.9087
208.681	93.9052
208.633	93.9028
208.635	93.8958
208.658	93.8967
208.672	93.8934
208.650	93.8886
208.643	93.8857
208.661	93.8869
208.681	93.8787
208.680	93.8792
208.665	93.8806
208.669	93.8767
208.690	93.8708
208.689	93.8644
208.693	93.8629
208.722	93.8596
208.757	93.8540
208.772	93.8580
208.784	93.8508
208.854	93.8485
208.916	93.8460
208.917	93.8488
208.917	93.8390
208.929	93.8349
208.947	93.8367
208.990	93.8267
209.049	93.8298
209.083	93.8262
209.049	93.8244
209.006	93.8216
208.992	93.8215
208.986	93.8180
208.979	93.8156
208.981	93.8162
208.986	93.8111
208.924	93.8070
208.777	93.8041
208.649	93.7994
208.679	93.7978
208.739	93.7986
208.692	93.7950
208.583	93.7937
208.593	93.7862
208.721	93.7862
208.822	93.7895
208.886	93.7827
208.892	93.7758
208.842	93.7814
208.785	93.7766
208.757	93.7746
208.725	93.7749
208.711	93.7738
208.684	93.7676
208.671	93.7647
208.679	93.7584
208.685	93.7562
208.650	93.7567
208.674	93.7508
208.747	93.7562
208.740	93.7546
208.712	93.7479
208.749	93.7441
208.824	93.7475
208.895	93.7399
208.950	93.7385
208.984	93.7429
208.977	93.7355
208.925	93.7330
208.903	93.7355
208.910	93.7358
208.916	93.7341
208.914	93.7284
208.916	93.7290
208.901	93.7248
208.906	93.7183
208.928	93.7199
208.922	93.7216
208.892	93.7143
208.869	93.7182
208.875	93.7133
208.838	93.7130
208.774	93.7113
208.755	93.7060
208.774	93.7088
208.795	93.7036
208.823	93.6972
208.776	93.6908
208.751	93.6945
208.730	93.6894
208.729	93.6883
208.744	93.6888
208.740	93.6896
208.786	93.6917
208.844	93.6871
208.867	93.6826
208.875	93.6834
208.919	93.6764
208.936	93.6746
208.941	93.6756
208.946	93.6723
208.973	93.6741
208.991	93.6641
208.981	93.6642
208.947	93.6659
208.892	93.6645
208.782	93.6638
208.758	93.6568
208.754	93.6595
208.729	93.6634
208.705	93.6579
208.684	93.6542
208.667	93.6563
208.688	93.6632
208.729	93.6548
208.721	93.6499
208.691	93.6471
208.685	93.6443
208.674	93.6446
208.661	93.6426
208.657	93.6431
208.694	93.6375
208.791	93.6361
208.848	93.6341
208.867	93.6325
208.846	93.6397
208.875	93.6314
208.881	93.6339
208.857	93.6282
208.877	93.6299
208.903	93.6253
208.915	93.6254
208.890	93.6200
208.882	93.6255
208.892	93.6198
208.904	93.6208
208.922	93.6185
208.941	93.6160
208.939	93.6113
208.961	93.6119
208.997	93.6113
208.973	93.6083
208.923	93.6080
208.882	93.6079
208.896	93.6038
208.888	93.6078
208.853	93.6023
208.811	93.6008
208.774	93.5962
208.787	93.6008
208.811	93.5974
208.806	93.5923
208.767	93.5908
208.725	93.5926
208.747	93.5875
208.766	93.5883
208.754	93.5868
208.748	93.5838
208.746	93.5852
208.713	93.5824
208.722	93.5832
208.713	93.5806
208.690	93.5793
208.683	93.5750
208.681	93.5768
208.647	93.5720
208.620	93.5687
208.609	93.5725
208.622	93.5707
208.662	93.5742
208.688	93.5687
208.710	93.5695
208.686	93.5659
208.657	93.5653
208.649	93.5637
208.642	93.5614
208.647	93.5607
208.658	93.5602
208.607	93.5573
208.541	93.5557
208.533	93.5559
208.632	93.5605
208.675	93.5529
208.719	93.5490
208.759	93.5526
208.763	93.5509
208.779	93.5489
208.811	93.5459
208.831	93.5486
208.850	93.5468
208.881	93.5491
208.919	93.5431
208.937	93.5418
208.933	93.5400
208.899	93.5352
208.911	93.5399
208.951	93.5408
208.940	93.5383
208.898	93.5332
208.877	93.5397
208.871	93.5334
208.865	93.5330
208.853	93.5322
208.816	93.5299
208.829	93.5303
208.876	93.5273
208.928	93.5295
208.940	93.5220
208.940	93.5247
208.943	93.5168
208.944	93.5260
208.945	93.5210
208.932	93.5198
208.940	93.5156
208.929	93.5132
208.913	93.5137
208.923	93.5168
208.945	93.5109
208.949	93.5107
208.947	93.5126
208.962	93.5093
208.980	93.5055
208.988	93.5071
208.989	93.5061
208.993	93.5061
208.974	93.5031
209.026	93.5025
210.299	93.5046
213.662	93.5006
218.336	93.5026
223.677	93.5010
229.333	93.4972
235.133	93.4954
240.494	93.4928
245.618	93.4902
248.632	93.4839
250.349	93.4796
251.446	93.4747
252.178	93.4706
252.745	93.4668
253.206	93.4615
253.629	93.4570
254.081	93.4530
254.445	93.4485
254.723	93.4447
254.917	93.4405
255.065	93.4368
255.198	93.4332
255.280	93.4290
255.315	93.4254
255.376	93.4221
255.453	93.4187
255.515	93.4150
255.546	93.4114
255.581	93.4078
255.613	93.4044
255.644	93.4008
255.681	93.3975
255.668	93.3945
255.643	93.3913
255.640	93.3882
255.657	93.3848
255.708	93.3814
255.731	93.3785
255.738	93.3753
255.713	93.3723
255.693	93.3685
255.678	93.3663
255.702	93.3632
255.709	93.3605
255.719	93.3572
255.746	93.3541
255.790	93.3516
255.798	93.3487
255.779	93.3452
255.854	93.3424
255.944	93.3395
255.964	93.3372
255.951	93.3344
255.883	93.3318
255.809	93.3289
255.755	93.3264
255.742	93.3245
255.748	93.3222
255.751	93.3187
255.736	93.3160
255.731	93.3140
255.734	93.3109
255.724	93.3084
255.735	93.3061
255.765	93.3031
255.795	93.3011
255.811	93.2991
255.875	93.2968
255.928	93.2941
255.958	93.2922
255.966	93.2890
255.958	93.2872
255.965	93.2845
255.968	93.2822
255.955	93.2796
255.944	93.2775
255.913	93.2754
255.852	93.2734
255.781	93.2711
255.798	93.2689
255.814	93.2665
255.846	93.2644
255.867	93.2624
255.884	93.2604
255.957	93.2583
256.005	93.2561
256.019	93.2542
256.029	93.2522
256.025	93.2504
256.047	93.2485
256.048	93.2457
256.038	93.2441
255.988	93.2421
255.900	93.2403
255.875	93.2382
255.913	93.2365
255.899	93.2350
255.951	93.2327
256.011	93.2310
256.016	93.2286
256.033	93.2271
256.046	93.2248
256.060	93.2230
256.082	93.2215
256.101	93.2195
256.104	93.2175
256.108	93.2159
256.120	93.2142
256.138	93.2123
256.160	93.2108
256.155	93.2091
256.154	93.2082
256.127	93.2055
256.096	93.2030
256.113	93.2018
256.128	93.2003
256.137	93.1988
256.128	93.1971
256.116	93.1955
256.097	93.1938
256.088	93.1927
256.091	93.1901
256.124	93.1889
256.138	93.1875
256.126	93.1859
256.115	93.1847
256.028	93.1828
255.925	93.1814
255.885	93.1799
255.871	93.1790
255.863	93.1773
255.845	93.1760
255.865	93.1743
255.888	93.1725
255.898	93.1712
255.950	93.1698
255.972	93.1680
255.957	93.1666
255.942	93.1650
256.026	93.1634
256.077	93.1618
256.085	93.1606
256.099	93.1596
256.096	93.1580
256.081	93.1568
256.033	93.1553
256.011	93.1534
255.998	93.1526
256.004	93.1514
255.991	93.1505
255.982	93.1491
255.995	93.1473
255.989	93.1456
256.014	93.1443
255.936	93.1433
255.867	93.1414
255.940	93.1402
256.016	93.1391
256.046	93.1376
256.061	93.1365
256.055	93.1357
256.070	93.1344
256.065	93.1331
256.057	93.1317
256.059	93.1303
256.050	93.1293
256.064	93.1279
256.083	93.1266
256.100	93.1252
256.098	93.1242
256.062	93.1224
256.031	93.1217
256.008	93.1203
255.958	93.1192
255.905	93.1179
255.869	93.1165
255.867	93.1152
255.872	93.1139
255.876	93.1121
255.878	93.1111
255.904	93.1096
255.931	93.1092
255.914	93.1084
255.917	93.1063
255.907	93.1049
255.916	93.1039
255.920	93.1040
255.920	93.1023
255.910	93.1004
255.882	93.0994
255.883	93.0982
255.897	93.0972
255.913	93.0954
255.914	93.0946
255.921	93.0935
255.920	93.0927
255.908	93.0913
255.911	93.0903
255.901	93.0890
255.893	93.0881
255.902	93.0869
255.885	93.0862
255.852	93.0845
255.839	93.0835
255.824	93.0825
255.818	93.0816
255.822	93.0806
255.812	93.0795
255.811	93.0787
255.856	93.0777
255.901	93.0766
255.984	93.0754
256.059	93.0744
256.104	93.0735
256.121	93.0722
256.109	93.0709
256.094	93.0698
256.088	93.0689
256.081	93.0679
256.035	93.0668
255.913	93.0655
255.833	93.0651
255.812	93.0645
255.831	93.0626
255.902	93.0615
255.960	93.0605
255.967	93.0599
255.974	93.0587
255.990	93.0581
256.027	93.0570
256.046	93.0554
256.073	93.0551
256.105	93.0539
256.122	93.0527
256.123	93.0516
256.135	93.0504
256.153	93.0497
256.159	93.0491
256.162	93.0488
256.159	93.0473
256.178	93.0461
256.187	93.0452
256.172	93.0447
256.163	93.0432
256.177	93.0421
256.178	93.0416
256.172	93.0403
256.160	93.0396
256.138	93.0386
256.124	93.0370
256.090	93.0364
256.102	93.0356
256.138	93.0347
256.160	93.0336
256.151	93.0330
256.149	93.0320
256.172	93.0309
256.174	93.0303
256.159	93.0298
256.135	93.0286
256.112	93.0273
256.106	93.0263
256.099	93.0262
256.105	93.0256
256.107	93.0246
256.113	93.0239
256.129	93.0225
256.145	93.0216
256.154	93.0205
256.157	93.0200
256.154	93.0193
256.151	93.0179
256.153	93.0176
256.156	93.0171
256.158	93.0157
256.158	93.0146
256.151	93.0136
256.138	93.0130
256.126	93.0125
256.131	93.0117
256.146	93.0108
256.157	93.0093
256.161	93.0085
256.165	93.0077
256.172	93.0068
256.164	93.0064
256.182	93.0054
256.183	93.0036
256.189	93.0032
256.191	93.0026
256.193	93.0024
256.184	93.0015
256.162	93.0004
256.140	92.9996
256.127	92.9989
256.131	92.9987
256.151	92.9979
256.119	92.9968
256.115	92.9962
256.141	92.9953
256.168	92.9941
256.174	92.9933
256.145	92.9931
256.111	92.9918
256.097	92.9915
256.107	92.9908
256.111	92.9897
256.091	92.9893
256.092	92.9888
256.106	92.9880
256.103	92.9872
256.116	92.9865
256.132	92.9863
256.146	92.9854
256.154	92.9843
256.151	92.9835
256.149	92.9830
256.135	92.9821
256.125	92.9809
256.123	92.9806
256.118	92.9801
256.105	92.9795
256.094	92.9788
256.086	92.9785
256.086	92.9773
256.090	92.9764
256.083	92.9759
256.082	92.9748
256.087	92.9742
256.091	92.9731
256.096	92.9724
256.093	92.9716
256.076	92.9710
256.075	92.9704
256.091	92.9697
256.091	92.9690
256.072	92.9684
256.023	92.9674
255.982	92.9666
255.955	92.9659
255.940	92.9649
255.941	92.9641
255.938	92.9634
255.944	92.9628
255.960	92.9629
255.965	92.9616
255.971	92.9604
255.989	92.9594
256.006	92.9587
256.033	92.9583
256.045	92.9578
256.072	92.9569
256.111	92.9564
256.145	92.9561
256.160	92.9548
256.157	92.9539
256.139	92.9535
256.107	92.9528
256.094	92.9522
256.104	92.9517
256.118	92.9509
256.124	92.9497
256.125	92.9490
256.123	92.9482
256.115	92.9482
256.111	92.9474
256.113	92.9463
256.120	92.9457
256.124	92.9452
256.120	92.9442
256.103	92.9437
256.079	92.9431
256.080	92.9423
256.097	92.9418
256.090	92.9406
256.073	92.9400
256.070	92.9395
256.070	92.9388
256.072	92.9381
256.083	92.9373
256.102	92.9363
256.089	92.9359
256.073	92.9356
256.075	92.9348
256.061	92.9342
256.039	92.9334
256.054	92.9337
256.070	92.9326
256.074	92.9319
256.082	92.9306
256.091	92.9306
256.085	92.9297
256.081	92.9290
256.087	92.9285
256.111	92.9280
256.106	92.9281
256.093	92.9274
256.090	92.9264
256.101	92.9258
256.106	92.9247
256.114	92.9242
256.118	92.9234
256.108	92.9226
256.103	92.9222
256.112	92.9215
256.108	92.9214
256.120	92.9207
256.125	92.9198
256.126	92.9193
256.128	92.9183
256.129	92.9179
256.113	92.9172
256.105	92.9161
256.118	92.9160
256.122	92.9150
256.113	92.9143
256.110	92.9137
256.123	92.9130
256.104	92.9122
256.093	92.9116
256.105	92.9107
256.125	92.9104
256.126	92.9101
256.110	92.9094
256.104	92.9090
256.106	92.9086
256.107	92.9079
256.113	92.9077
256.132	92.9068
256.141	92.9061
256.138	92.9049
256.143	92.9046
256.138	92.9045
256.126	92.9038
256.092	92.9030
256.077	92.9025
256.036	92.9016
255.994	92.9012
255.982	92.9002
255.954	92.9000
255.921	92.9001
255.925	92.8991
255.955	92.8982
255.964	92.8976
255.965	92.8973
255.970	92.8970
255.972	92.8963
255.958	92.8965
255.942	92.8951
255.929	92.8943
255.913	92.8938
255.918	92.8934
255.924	92.8927
255.913	92.8922
255.917	92.8912
255.920	92.8910
255.971	92.8907
256.005	92.8902