File: data_plotting/tga/Cu ink 8_10_16.txt
Filename:	D:\Users\Thermal_Users\LeBlanc\Cu ink 8-10-16.tg1d

Time (min)	Weight (mg)
0.000	67.4989
6.667e-002	67.5118
0.133	67.5135
0.200	67.4997
0.267	67.5044
0.333	67.5015
0.400	67.4811
0.467	67.4969
0.533	67.4984
0.600	67.5014
0.667	67.4904
0.733	67.4906
0.800	67.4989
0.867	67.4963
0.933	67.4963
1.000	67.4748
1.067	67.4773
1.133	67.5115
1.200	67.5065
1.267	67.5052
1.333	67.5005
1.400	67.4663
1.467	67.4282
1.533	67.4309
1.600	67.4130
1.667	67.3942
1.733	67.3934
1.800	67.3756
1.867	67.3508
1.933	67.3034
2.000	67.2604
2.067	67.1876
2.133	67.0724
2.200	66.8898
2.267	66.6033
2.333	66.2002
2.400	65.6462
2.467	64.9684
2.533	64.2995
2.600	63.8841
2.667	63.6610
2.733	63.5531
2.800	63.4841
2.867	63.4268
2.933	63.3122
3.000	63.2227
3.067	63.1611
3.133	63.0893
3.200	63.0499
3.267	63.0508
3.333	63.0712
3.400	63.1232
3.467	63.1102
3.533	63.1052
3.600	63.1679
3.667	63.1034
3.733	63.0558
3.800	63.1083
3.867	63.1490
3.933	63.1678
4.000	63.2072
4.067	63.2572
4.133	63.2452
4.200	63.3018
4.267	63.3685
4.333	63.3331
4.400	63.3610
4.467	63.3809
4.533	63.3994
4.600	63.4045
4.667	63.4614
4.733	63.4908
4.800	63.5018
4.867	63.5175
4.933	63.5254
5.000	63.5397
5.067	63.5526
5.133	63.5993
5.200	63.6283
5.267	63.6583
5.333	63.6859
5.400	63.6880
5.467	63.7321
5.533	63.7787
5.600	63.8186
5.667	63.8544
5.733	63.8713
5.800	63.9160
5.867	63.9565
5.933	63.9899
6.000	63.9896
6.067	64.0494
6.133	64.0565
6.200	64.0945
6.267	64.1174
6.333	64.1384
6.400	64.1613
6.467	64.2164
6.533	64.2159
6.600	64.2446
6.667	64.3058
6.733	64.3056
6.800	64.4028
6.867	64.4682
6.933	64.4796
7.000	64.4969
7.067	64.5072
7.133	64.5372
7.200	64.5668
7.267	64.5957
7.333	64.6181
7.400	64.6399
7.467	64.6586
7.533	64.7023
7.600	64.7627
7.667	64.8112
7.733	64.8488
7.800	64.8766
7.867	64.8951
7.933	64.9100
8.000	64.9373
8.067	64.9597
8.133	64.9947
8.200	65.0397
8.267	65.0590
8.333	65.0925
8.400	65.1231
8.467	65.1588
8.533	65.1859
8.600	65.2132
8.667	65.2539
8.733	65.2861
8.800	65.3128
8.867	65.3477
8.933	65.3645
9.000	65.4312
9.067	65.4681
9.133	65.4876
9.200	65.5205
9.267	65.5671
9.333	65.6066
9.400	65.6396
9.467	65.6776
9.533	65.6815
9.600	65.6609
9.667	65.6853
9.733	65.7136
9.800	65.7334
9.867	65.7788
9.933	65.8333
10.000	65.8814
10.067	65.9058
10.133	65.9351
10.200	65.9744
10.267	66.0353
10.333	66.0510
10.400	66.0850
10.467	66.1164
10.533	66.1559
10.600	66.1760
10.667	66.1875
10.733	66.2228
10.800	66.2440
10.867	66.2844
10.933	66.3183
11.000	66.3349
11.067	66.3366
11.133	66.3868
11.200	66.4282
11.267	66.4559
11.333	66.4793
11.400	66.5129
11.467	66.5353
11.533	66.5463
11.600	66.5922
11.667	66.6248
11.733	66.6383
11.800	66.6692
11.867	66.6967
11.933	66.7321
12.000	66.7645
12.067	66.7834
12.133	66.8053
12.200	66.7796
12.267	66.8018
12.333	66.8348
12.400	66.8558
12.467	66.8845
12.533	66.9107
12.600	66.9379
12.667	66.9614
12.733	66.9959
12.800	67.0196
12.867	67.0665
12.933	67.0894
13.000	67.1237
13.067	67.1431
13.133	67.1699
13.200	67.1898
13.267	67.2176
13.333	67.2501
13.400	67.2720
13.467	67.2936
13.533	67.3069
13.600	67.3417
13.667	67.3687
13.733	67.3922
13.800	67.4073
13.867	67.4401
13.933	67.4626
14.000	67.4797
14.067	67.5115
14.133	67.5196
14.200	67.5363
14.267	67.5672
14.333	67.5933
14.400	67.6184
14.467	67.6414
14.533	67.6616
14.600	67.6847
14.667	67.6997
14.733	67.7227
14.800	67.7511
14.867	67.7696
14.933	67.7822
15.000	67.8200
15.067	67.8377
15.133	67.8665
15.200	67.8768
15.267	67.9068
15.333	67.9331
15.400	67.9743
15.467	67.9892
15.533	68.0099
15.600	68.0335
15.667	68.0484
15.733	68.0723
15.800	68.0880
15.867	68.1148
15.933	68.1339
16.000	68.1523
16.067	68.1891
16.133	68.2046
16.200	68.2176
16.267	68.2356
16.333	68.2674
16.400	68.3037
16.467	68.3314
16.533	68.3341
16.600	68.3651
16.667	68.3842
16.733	68.3999
16.800	68.4402
16.867	68.4715
16.933	68.4887
17.000	68.5020
17.067	68.5251
17.133	68.5428
17.200	68.5554
17.267	68.5580
17.333	68.5739
17.400	68.5952
17.467	68.6119
17.533	68.6431
17.600	68.6576
17.667	68.6762
17.733	68.7028
17.800	68.7179
17.867	68.7316
17.933	68.7490
18.000	68.7691
18.067	68.7923
18.133	68.8214
18.200	68.8338
18.267	68.8513
18.333	68.8728
18.400	68.8880
18.467	68.8959
18.533	68.9204
18.600	68.9416
18.667	68.9579
18.733	68.9757
18.800	68.9885
18.867	68.9942
18.933	69.0210
19.000	68.9694
19.067	68.9426
19.133	68.9362
19.200	68.9762
19.267	68.9930
19.333	68.9956
19.400	69.0051
19.467	69.0243
19.533	69.0473
19.600	69.0644
19.667	69.0782
19.733	69.0894
19.800	69.1029
19.867	69.1015
19.933	69.0195
20.000	69.0127
20.067	69.0228
20.133	69.0320
20.200	69.0804
20.267	69.1836
20.333	69.0913
20.400	69.1749
20.467	69.1955
20.533	69.2026
20.600	69.2176
20.667	69.1455
20.733	69.1241
20.800	69.1457
20.867	69.1844
20.933	69.2981
21.000	69.3316
21.067	69.3484
21.133	69.3750
21.200	69.3804
21.267	69.4231
21.333	69.4208
21.400	69.4190
21.467	69.4200
21.533	69.4719
21.600	69.6084
21.667	69.6495
21.733	69.6604
21.800	69.6736
21.867	69.6888
21.933	69.6995
22.000	69.7128
22.067	69.7200
22.133	69.7276
22.200	69.7358
22.267	69.7513
22.333	69.7617
22.400	69.7747
22.467	69.7897
22.533	69.8022
22.600	69.8135
22.667	69.8218
22.733	69.8238
22.800	69.8255
22.867	69.8313
22.933	69.8372
23.000	69.8423
23.067	69.8532
23.133	69.8591
23.200	69.8658
23.267	69.8734
23.333	69.8777
23.400	69.8837
23.467	69.8921
23.533	69.8980
23.600	69.8991
23.667	69.9076
23.733	69.9149
23.800	69.9200
23.867	69.9337
23.933	69.9472
24.000	69.9574
24.067	69.9656
24.133	69.9754
24.200	69.9775
24.267	69.9809
24.333	69.9871
24.400	70.0019
24.467	70.0144
24.533	70.0247
24.600	70.0392
24.667	70.0520
24.733	70.0590
24.800	70.0706
24.867	70.0857
24.933	70.0999
25.000	70.1147
25.067	70.1283
25.133	70.1347
25.200	70.1348
25.267	70.1364
25.333	70.1390
25.400	70.1429
25.467	70.1498
25.533	70.1516
25.600	70.1599
25.667	70.1708
25.733	70.1770
25.800	70.0948
25.867	70.0774
25.933	70.0877
26.000	70.0859
26.067	70.0840
26.133	70.0819
26.200	70.0790
26.267	70.0762
26.333	70.1237
26.400	70.1721
26.467	70.1878
26.533	70.1981
26.600	70.2031
26.667	70.2131
26.733	70.2217
26.800	70.2323
26.867	70.2402
26.933	70.2508
27.000	70.2613
27.067	70.2728
27.133	70.2751
27.200	70.2800
27.267	70.2820
27.333	70.2837
27.400	70.2909
27.467	70.3022
27.533	70.3128
27.600	70.3176
27.667	70.3135
27.733	70.3011
27.800	70.3014
27.867	70.3079
27.933	70.3198
28.000	70.3298
28.067	70.3354
28.133	70.3374
28.200	70.3399
28.267	70.3433
28.333	70.3485
28.400	70.3548
28.467	70.3602
28.533	70.3609
28.600	70.3565
28.667	70.3591
28.733	70.3575
28.800	70.3455
28.867	70.3237
28.933	70.2408
29.000	70.2136
29.067	70.2052
29.133	70.2091
29.200	70.2125
29.267	70.2169
29.333	70.2284
29.400	70.2379
29.467	70.2429
29.533	70.2540
29.600	70.2591
29.667	70.2644
29.733	70.2734
29.800	70.2800
29.867	70.2865
29.933	70.2959
30.000	70.3021
30.067	70.2960
30.133	70.2930
30.200	70.2938
30.267	70.2908
30.333	70.2832
30.400	70.2784
30.467	70.2733
30.533	70.2703
30.600	70.2788
30.667	70.2799
30.733	70.2834
30.800	70.2787
30.867	70.2807
30.933	70.2889
31.000	70.3019
31.067	70.3039
31.133	70.3036
31.200	70.3004
31.267	70.2941
31.333	70.2865
31.400	70.2840
31.467	70.2927
31.533	70.2991
31.600	70.3020
31.667	70.3035
31.733	70.3090
31.800	70.3090
31.867	70.3029
31.933	70.2999
32.000	70.2982
32.067	70.2959
32.133	70.2892
32.200	70.2864
32.267	70.2861
32.333	70.2836
32.400	70.2857
32.467	70.2768
32.533	70.2723
32.600	70.2690
32.667	70.2658
32.733	70.2645
32.800	70.2633
32.867	70.2665
32.933	70.2698
33.000	70.2675
33.067	70.2731
33.133	70.2844
33.200	70.2794
33.267	70.2736
33.333	70.2747
33.400	70.2815
33.467	70.2878
33.533	70.2834
33.600	70.2703
33.667	70.2601
33.733	70.2515
33.800	70.2544
33.867	70.2618
33.933	70.2665
34.000	70.2727
34.067	70.2667
34.133	70.2668
34.200	70.2651
34.267	70.2626
34.333	70.2573
34.400	70.2467
34.467	70.2353
34.533	70.2395
34.600	70.2482
34.667	70.2510
34.733	70.2555
34.800	70.2718
34.867	70.2862
34.933	70.2962
35.000	70.3059
35.067	70.3130
35.133	70.3222
35.200	70.3250
35.267	70.3217
35.333	70.3204
35.400	70.3174
35.467	70.3195
35.533	70.3150
35.600	70.3186
35.667	70.3225
35.733	70.3234
35.800	70.3328
35.867	70.3384
35.933	70.3361
36.000	70.3389
36.067	70.3438
36.133	70.3527
36.200	70.3573
36.267	70.3654
36.333	70.3638
36.400	70.3514
36.467	70.3386
36.533	70.3321
36.600	70.3342
36.667	70.3421
36.733	70.3457
36.800	70.3409
36.867	70.3363
36.933	70.3359
37.000	70.3469
37.067	70.3540
37.133	70.3571
37.200	70.3505
37.267	70.3483
37.333	70.3492
37.400	70.3509
37.467	70.3459
37.533	70.3457
37.600	70.3434
37.667	70.3362
37.733	70.3355
37.800	70.3333
37.867	70.3397
37.933	70.3494
38.000	70.3464
38.067	70.2793
38.133	70.2852
38.200	70.3137
38.267	70.3469
38.333	70.3243
38.400	70.3367
38.467	70.3366
38.533	70.2915
38.600	70.2533
38.667	70.2827
38.733	70.2587
38.800	70.2608
38.867	70.2503
38.933	70.2909
39.000	70.2842
39.067	70.3176
39.133	70.3595
39.200	70.3512
39.267	70.3653
39.333	70.3858
39.400	70.3666
39.467	70.3548
39.533	70.3438
39.600	70.3366
39.667	70.3140
39.733	70.3189
39.800	70.3042
39.867	70.2997
39.933	70.3083
40.000	70.3766
40.067	70.3861
40.133	70.3686
40.200	70.3900
40.267	70.4608
40.333	70.4624
40.400	70.4640
40.467	70.4738
40.533	70.4838
40.600	70.4933
40.667	70.6081
40.733	70.6407
40.800	70.4647
40.867	70.4131
40.933	70.3929
41.000	70.3978
41.067	70.3989
41.133	70.3794
41.200	70.3734
41.267	70.3694
41.333	70.3613
41.400	70.3613
41.467	70.3611
41.533	70.3714
41.600	70.3775
41.667	70.3785
41.733	70.3787
41.800	70.3870
41.867	70.3830
41.933	70.3753
42.000	70.3751
42.067	70.4072
42.133	70.3880
42.200	70.3835
42.267	70.3921
42.333	70.3921
42.400	70.3936
42.467	70.4013
42.533	70.3193
42.600	70.4088
42.667	70.4342
42.733	70.4403
42.800	70.4340
42.867	70.4191
42.933	70.4108
43.000	70.3723
43.067	70.3801
43.133	70.3687
43.200	70.3652
43.267	70.3737
43.333	70.3737
43.400	70.3706
43.467	70.3687
43.533	70.3367
43.600	70.3496
43.667	70.3643
43.733	70.3526
43.800	70.3471
43.867	70.3401
43.933	70.3355
44.000	70.3460
44.067	70.3551
44.133	70.3641
44.200	70.3750
44.267	70.3930
44.333	70.4140
44.400	70.4113
44.467	70.4149
44.533	70.4138
44.600	70.4208
44.667	70.4277
44.733	70.4291
44.800	70.4334
44.867	70.4392
44.933	70.4430
45.000	70.4317
45.067	70.4388
45.133	70.4430
45.200	70.4301
45.267	70.4160
45.333	70.4081
45.400	70.4008
45.467	70.3955
45.533	70.3886
45.600	70.3799
45.667	70.3765
45.733	70.3796
45.800	70.3854
45.867	70.3873
45.933	70.3820
46.000	70.3760
46.067	70.3797
46.133	70.3810
46.200	70.3780
46.267	70.3749
46.333	70.3738
46.400	70.3931
46.467	70.4025
46.533	70.4061
46.600	70.4022
46.667	70.4004
46.733	70.3994
46.800	70.3913
46.867	70.3862
46.933	70.3778
47.000	70.3752
47.067	70.3712
47.133	70.3815
47.200	70.3913
47.267	70.3964
47.333	70.3986
47.400	70.4013
47.467	70.3996
47.533	70.3941
47.600	70.3880
47.667	70.3786
47.733	70.3810
47.800	70.3839
47.867	70.3803
47.933	70.3785
48.000	70.3852
48.067	70.3832
48.133	70.3832
48.200	70.3907
48.267	70.3935
48.333	70.3968
48.400	70.3954
48.467	70.3875
48.533	70.3776
48.600	70.3742
48.667	70.3819
48.733	70.3944
48.800	70.4099
48.867	70.4213
48.933	70.4302
49.000	70.4384
49.067	70.4357
49.133	70.4285
49.200	70.4219
49.267	70.4163
49.333	70.4174
49.400	70.4160
49.467	70.4066
49.533	70.4039
49.600	70.4068
49.667	70.4026
49.733	70.3967
49.800	70.3913
49.867	70.3831
49.933	70.3755
50.000	70.3699
50.067	70.3687
50.133	70.3776
50.200	70.3789
50.267	70.3816
50.333	70.3900
50.400	70.4000
50.467	70.4007
50.533	70.3982
50.600	70.3993
50.667	70.4006
50.733	70.3963
50.800	70.3934
50.867	70.3942
50.933	70.4000
51.000	70.4059
51.067	70.4087
51.133	70.4171
51.200	70.4251
51.267	70.4290
51.333	70.4265
51.400	70.4283
51.467	70.4368
51.533	70.4515
51.600	70.4702
51.667	70.5096
51.733	70.5245
51.800	70.5122
51.867	70.5168
51.933	70.5080
52.000	70.3437
52.067	70.2951
52.133	70.2981
52.200	70.3021
52.267	70.2945
52.333	70.2921
52.400	70.4287
52.467	70.4897
52.533	70.5250
52.600	70.5222
52.667	70.5285
52.733	70.5307
52.800	70.4931
52.867	70.4827
52.933	70.4820
53.000	70.4798
53.067	70.4793
53.133	70.4810
53.200	70.4883
53.267	70.4888
53.333	70.4861
53.400	70.4853
53.467	70.4841
53.533	70.4773
53.600	70.4764
53.667	70.4711
53.733	70.4660
53.800	70.4576
53.867	70.4475
53.933	70.4423
54.000	70.4344
54.067	70.4287
54.133	70.4293
54.200	70.4343
54.267	70.4390
54.333	70.4358
54.400	70.4403
54.467	70.4512
54.533	70.4610
54.600	70.4673
54.667	70.4734
54.733	70.4835
54.800	70.4921
54.867	70.5007
54.933	70.5096
55.000	70.5136
55.067	70.5151
55.133	70.5020
55.200	70.4929
55.267	70.4843
55.333	70.4761
55.400	70.4694
55.467	70.4661
55.533	70.4607
55.600	70.4612
55.667	70.4577
55.733	70.4597
55.800	70.4579
55.867	70.4554
55.933	70.4532
56.000	70.4516
56.067	70.4528
56.133	70.4584
56.200	70.4637
56.267	70.4722
56.333	70.4786
56.400	70.4781
56.467	70.4818
56.533	70.4848
56.600	70.4840
56.667	70.4806
56.733	70.4850
56.800	70.4890
56.867	70.4936
56.933	70.4927
57.000	70.4876
57.067	70.4846
57.133	70.4843
57.200	70.4854
57.267	70.4866
57.333	70.4841
57.400	70.4749
57.467	70.4671
57.533	70.4715
57.600	70.4732
57.667	70.4716
57.733	70.4762
57.800	70.4779
57.867	70.4733
57.933	70.4771
58.000	70.4899
58.067	70.4979
58.133	70.5045
58.200	70.5075
58.267	70.5146
58.333	70.5214
58.400	70.5254
58.467	70.5204
58.533	70.5197
58.600	70.5261
58.667	70.5288
58.733	70.5241
58.800	70.5242
58.867	70.5295
58.933	70.5302
59.000	70.5342
59.067	70.5294
59.133	70.5340
59.200	70.5327
59.267	70.5312
59.333	70.5361
59.400	70.5382
59.467	70.5397
59.533	70.5383
59.600	70.5271
59.667	70.5212
59.733	70.5168
59.800	70.5155
59.867	70.5130
59.933	70.5174
60.000	70.5226
60.067	70.5278
60.133	70.5357
60.200	70.5395
60.267	70.5459
60.333	70.5505
60.400	70.5553
60.467	70.5603
60.533	70.5669
60.600	70.5738
60.667	70.5791
60.733	70.5825
60.800	70.5821
60.867	70.5734
60.933	70.5716
61.000	70.5738
61.067	70.5754
61.133	70.5770
61.200	70.5737
61.267	70.5693
61.333	70.5739
61.400	70.5726
61.467	70.5829
61.533	70.5944
61.600	70.5940
61.667	70.5668
61.733	70.6353
61.800	70.6164
61.867	70.5707
61.933	70.5570
62.000	70.6282
62.067	70.5974
62.133	70.5678
62.200	70.5640
62.267	70.5678
62.333	70.5722
62.400	70.5800
62.467	70.5865
62.533	70.5973
62.600	70.5926
62.667	70.6002
62.733	70.5886
62.800	70.5551
62.867	70.6018
62.933	70.6164
63.000	70.6416
63.067	70.6513
63.133	70.5530
63.200	70.6058
63.267	70.6331
63.333	70.7399
63.400	70.6347
63.467	70.6952
63.533	70.6966
63.600	70.6119
63.667	70.5881
63.733	70.4907
63.800	70.4732
63.867	70.5554
63.933	70.5926
64.000	70.5621
64.067	70.5369
64.133	70.5543
64.200	70.5832
64.267	70.6130
64.333	70.5741
64.400	70.5483
64.467	70.5942
64.533	70.5815
64.600	70.5825
64.667	70.5769
64.733	70.5876
64.800	70.5948
64.867	70.6072
64.933	70.6068
65.000	70.6381
65.067	70.6438
65.133	70.6448
65.200	70.6444
65.267	70.6515
65.333	70.6466
65.400	70.6531
65.467	70.6294
65.533	70.6251
65.600	70.6518
65.667	70.6566
65.733	70.6300
65.800	70.6329
65.867	70.6056
65.933	70.5892
66.000	70.5963
66.067	70.5943
66.133	70.6021
66.200	70.6037
66.267	70.6043
66.333	70.6171
66.400	70.6245
66.467	70.6269
66.533	70.6383
66.600	70.6305
66.667	70.6399
66.733	70.6234
66.800	70.6338
66.867	70.6154
66.933	70.6398
67.000	70.6520
67.067	70.6332
67.133	70.6405
67.200	70.6297
67.267	70.6073
67.333	70.6140
67.400	70.6012
67.467	70.5882
67.533	70.5902
67.600	70.5897
67.667	70.5769
67.733	70.5663
67.800	70.5657
67.867	70.5607
67.933	70.5590
68.000	70.5529
68.067	70.5453
68.133	70.5390
68.200	70.5333
68.267	70.5321
68.333	70.5311
68.400	70.5307
68.467	70.5280
68.533	70.5231
68.600	70.5196
68.667	70.5180
68.733	70.5140
68.800	70.5070
68.867	70.5021
68.933	70.5008
69.000	70.5066
69.067	70.5069
69.133	70.5127
69.200	70.5191
69.267	70.5266
69.333	70.5344
69.400	70.5383
69.467	70.5445
69.533	70.5470
69.600	70.5516
69.667	70.5513
69.733	70.5512
69.800	70.5472
69.867	70.5443
69.933	70.5399
70.000	70.5339
70.067	70.5325
70.133	70.5370
70.200	70.5352
70.267	70.5320
70.333	70.5301
70.400	70.5323
70.467	70.5356
70.533	70.5447
70.600	70.5514
70.667	70.5538
70.733	70.5587
70.800	70.5577
70.867	70.5599
70.933	70.5611
71.000	70.5586
71.067	70.5527
71.133	70.5449
71.200	70.5424
71.267	70.5489
71.333	70.5493
71.400	70.5518
71.467	70.5595
71.533	70.5634
71.600	70.5594
71.667	70.5596
71.733	70.5561
71.800	70.5515
71.867	70.5467
71.933	70.5388
72.000	70.5370
72.067	70.5384
72.133	70.5372
72.200	70.5338
72.267	70.5356
72.333	70.5470
72.400	70.5547
72.467	70.5603
72.533	70.5679
72.600	70.5704
72.667	70.5760
72.733	70.5784
72.800	70.5786
72.867	70.5821
72.933	70.5828
73.000	70.5863
73.067	70.5876
73.133	70.5834
73.200	70.5834
73.267	70.5798
73.333	70.5698
73.400	70.5608
73.467	70.5530
73.533	70.5513
73.600	70.5493
73.667	70.5389
73.733	70.5369
73.800	70.5413
73.867	70.5476
73.933	70.5510
74.000	70.5473
74.067	70.5468
74.133	70.5462
74.200	70.5458
74.267	70.5439
74.333	70.5461
74.400	70.5456
74.467	70.5394
74.533	70.5344
74.600	70.5390
74.667	70.5457
74.733	70.5469
74.800	70.5417
74.867	70.5373
74.933	70.5314
75.000	70.5313
75.067	70.5266
75.133	70.5200
75.200	70.5138
75.267	70.5094
75.333	70.5088
75.400	70.5037
75.467	70.5057
75.533	70.5053
75.600	70.5025
75.667	70.5070
75.733	70.5051
75.800	70.5072
75.867	70.5157
75.933	70.5194
76.000	70.5251
76.067	70.5392
76.133	70.5443
76.200	70.5392
76.267	70.5339
76.333	70.5321
76.400	70.5351
76.467	70.5392
76.533	70.5423
76.600	70.5459
76.667	70.5497
76.733	70.5425
76.800	70.5428
76.867	70.5457
76.933	70.5463
77.000	70.5490
77.067	70.5457
77.133	70.5358
77.200	70.5288
77.267	70.5235
77.333	70.5200
77.400	70.5209
77.467	70.5193
77.533	70.5283
77.600	70.5340
77.667	70.5325
77.733	70.5286
77.800	70.5272
77.867	70.5263
77.933	70.5284
78.000	70.5371
78.067	70.5449
78.133	70.5426
78.200	70.5380
78.267	70.5316
78.333	70.5243
78.400	70.5235
78.467	70.5240
78.533	70.5232
78.600	70.5279
78.667	70.5309
78.733	70.5221
78.800	70.5178
78.867	70.5182
78.933	70.5236
79.000	70.5323
79.067	70.5385
79.133	70.5427
79.200	70.5389
79.267	70.5309
79.333	70.5206
79.400	70.5186
79.467	70.5207
79.533	70.5278
79.600	70.5235
79.667	70.5167
79.733	70.5153
79.800	70.5201
79.867	70.5296
79.933	70.5345
80.000	70.5291
80.067	70.5221
80.133	70.5220
80.200	70.5162
80.267	70.5156
80.333	70.5193
80.400	70.5128
80.467	70.5112
80.533	70.5143
80.600	70.5137
80.667	70.5065
80.733	70.5015
80.800	70.4943
80.867	70.4885
80.933	70.4898
81.000	70.4918
81.067	70.4916
81.133	70.4907
81.200	70.4911
81.267	70.6443
81.333	70.6611
81.400	70.6696
81.467	70.6452
81.533	70.6923
81.600	70.8097
81.667	70.5694
81.733	70.4923
81.800	70.4820
81.867	70.4927
81.933	70.5059
82.000	70.5189
82.067	70.5299
82.133	70.5423
82.200	70.5521
82.267	70.5558
82.333	70.5537
82.400	70.5525
82.467	70.5465
82.533	70.5431
82.600	70.5382
82.667	70.5414
82.733	70.5466
82.800	70.5605
82.867	70.5638
82.933	70.5615
83.000	70.5592
83.067	70.5502
83.133	70.5440
83.200	70.5367
83.267	70.5372
83.333	70.5443
83.400	70.5520
83.467	70.5528
83.533	70.5495
83.600	70.5473
83.667	70.5422
83.733	70.5320
83.800	70.5215
83.867	70.5218
83.933	70.5318
84.000	70.5431
84.067	70.5462
84.133	70.5343
84.200	70.5287
84.267	70.5251
84.333	70.5221
84.400	70.5170
84.467	70.5096
84.533	70.5038
84.600	70.4946
84.667	70.4919
84.733	70.4910
84.800	70.4915
84.867	70.4884
84.933	70.4875
85.000	70.4922
85.067	70.5012
85.133	70.5047
85.200	70.5080
85.267	70.5063
85.333	70.5135
85.400	70.5163
85.467	70.5124
85.533	70.5044
85.600	70.4986
85.667	70.4961
85.733	70.4952
85.800	70.5060
85.867	70.5179
85.933	70.5260
86.000	70.5259
86.067	70.5234
86.133	70.5220
86.200	70.5243
86.267	70.5207
86.333	70.5176
86.400	70.5172
86.467	70.5191
86.533	70.5203
86.600	70.5218
86.667	70.5255
86.733	70.5283
86.800	70.5279
86.867	70.5292
86.933	70.5301
87.000	70.5286
87.067	70.5285
87.133	70.5209
87.200	70.5187
87.267	70.5334
87.333	70.5435
87.400	70.5492
87.467	70.5468
87.533	70.5434
87.600	70.5439
87.667	70.5454
87.733	70.5404
87.800	70.5403
87.867	70.5350
87.933	70.5320
88.000	70.5355
88.067	70.5441
88.133	70.5482
88.200	70.5477
88.267	70.5460
88.333	70.5414
88.400	70.5377
88.467	70.5400
88.533	70.5448
88.600	70.5438
88.667	70.5490
88.733	70.5583
88.800	70.5626
88.867	70.5611
88.933	70.5654
89.000	70.5587
89.067	70.5559
89.133	70.5519
89.200	70.5476
89.267	70.5537
89.333	70.5690
89.400	70.5764
89.467	70.5766
89.533	70.5769
89.600	70.5748
89.667	70.5759
89.733	70.5776
89.800	70.5797
89.867	70.5784
89.933	70.5814
90.000	70.5775
90.067	70.5842
90.133	70.5911
90.200	70.5895
90.267	70.5909
90.333	70.5970
90.400	70.6026
90.467	70.6449
90.533	70.7196
90.600	70.6674
90.667	70.6002
90.733	70.5815
90.800	70.5737
90.867	70.5639
90.933	70.5577
91.000	70.5520
91.067	70.5477
91.133	70.5460
91.200	70.5437
91.267	70.5443
91.333	70.5489
91.400	70.5568
91.467	70.5604
91.533	70.5578
91.600	70.5567
91.667	70.5534
91.733	70.5542
91.800	70.5575
91.867	70.5570
91.933	70.5577
92.000	70.5544
92.067	70.5536
92.133	70.5601
92.200	70.5678
92.267	70.5786
92.333	70.5889
92.400	70.5862
92.467	70.5766
92.533	70.5690
92.600	70.5675
92.667	70.5687
92.733	70.5790
92.800	70.6870
92.850	70.7278