File: data_plotting/tga/Cu_ink_8_8_16.txt
Filename:	D:\Users\Thermal_Users\LeBlanc\Cu ink 8_8_16.tg1d

Time (min)	Weight % (%)
0.000	100.0101
3.333e-002	100.0165
6.667e-002	100.0203
1.000e-001	100.0206
0.133	100.0190
0.167	100.0167
0.200	100.0150
0.233	100.0130
0.267	100.0099
0.300	100.0070
0.333	100.0054
0.367	100.0043
0.400	100.0013
0.433	99.9988
0.467	99.9972
0.500	99.9955
0.533	99.9936
0.567	99.9919
0.600	99.9909
0.633	99.9890
0.667	99.9882
0.700	99.9876
0.733	99.9877
0.767	99.9867
0.800	99.9851
0.833	99.9843
0.867	99.9831
0.900	99.9821
0.933	99.9813
0.967	99.9809
1.000	99.9800
1.033	99.9800
1.067	99.9791
1.100	99.9787
1.133	99.9789
1.167	99.9799
1.200	99.9806
1.233	99.9818
1.267	99.9826
1.300	99.9823
1.333	99.9822
1.367	99.9823
1.400	99.9868
1.433	100.0262
1.467	100.0539
1.500	100.0581
1.533	100.0492
1.567	100.0337
1.600	100.0153
1.633	99.9943
1.667	99.9731
1.700	99.9507
1.733	99.9270
1.767	99.9012
1.800	99.8742
1.833	99.8455
1.867	99.8172
1.900	99.7893
1.933	99.7614
1.967	99.7341
2.000	99.7073
2.033	99.6820
2.067	99.6580
2.100	99.6356
2.133	99.6136
2.167	99.5948
2.200	99.5796
2.233	99.5665
2.267	99.5550
2.300	99.5435
2.333	99.5350
2.367	99.5284
2.400	99.5232
2.433	99.5199
2.467	99.5187
2.500	99.5199
2.533	99.5225
2.567	99.5257
2.600	99.5308
2.633	99.5373
2.667	99.5447
2.700	99.5542
2.733	99.5651
2.767	99.5754
2.800	99.5857
2.833	99.5987
2.867	99.6119
2.900	99.6250
2.933	99.6383
2.967	99.6527
3.000	99.6687
3.033	99.6842
3.067	99.6990
3.100	99.7140
3.133	99.7290
3.167	99.7451
3.200	99.7615
3.233	99.7777
3.267	99.7934
3.300	99.8094
3.333	99.8253
3.367	99.8411
3.400	99.8565
3.433	99.8721
3.467	99.8880
3.500	99.9032
3.533	99.9191
3.567	99.9350
3.600	99.9502
3.633	99.9650
3.667	99.9795
3.700	99.9944
3.733	100.0095
3.767	100.0254
3.800	100.0419
3.833	100.0570
3.867	100.0717
3.900	100.0875
3.933	100.1024
3.967	100.1179
4.000	100.1334
4.033	100.1486
4.067	100.1635
4.100	100.1786
4.133	100.1948
4.167	100.2101
4.200	100.2253
4.233	100.2402
4.267	100.2558
4.300	100.2714
4.333	100.2865
4.367	100.3023
4.400	100.3171
4.433	100.3326
4.467	100.3470
4.500	100.3632
4.533	100.3791
4.567	100.3944
4.600	100.4096
4.633	100.4247
4.667	100.4405
4.700	100.4564
4.733	100.4730
4.767	100.4880
4.800	100.5022
4.833	100.5172
4.867	100.5314
4.900	100.5453
4.933	100.5598
4.967	100.5739
5.000	100.5889
5.033	100.6038
5.067	100.6182
5.100	100.6323
5.133	100.6460
5.167	100.6596
5.200	100.6735
5.233	100.6876
5.267	100.7008
5.300	100.7137
5.333	100.7269
5.367	100.7398
5.400	100.7529
5.433	100.7646
5.467	100.7766
5.500	100.7886
5.533	100.8012
5.567	100.8147
5.600	100.8270
5.633	100.8371
5.667	100.8473
5.700	100.8583
5.733	100.8685
5.767	100.8780
5.800	100.8882
5.833	100.8986
5.867	100.9093
5.900	100.9193
5.933	100.9288
5.967	100.9380
6.000	100.9472
6.033	100.9559
6.067	100.9641
6.100	100.9720
6.133	100.9803
6.167	100.9879
6.200	100.9963
6.233	101.0033
6.267	101.0093
6.300	101.0157
6.333	101.0220
6.367	101.0284
6.400	101.0351
6.433	101.0413
6.467	101.0473
6.500	101.0530
6.533	101.0597
6.567	101.0646
6.600	101.0688
6.633	101.0717
6.667	101.0760
6.700	101.0805
6.733	101.0845
6.767	101.0884
6.800	101.0922
6.833	101.0960
6.867	101.0987
6.900	101.1011
6.933	101.1031
6.967	101.1054
7.000	101.1071
7.033	101.1084
7.067	101.1109
7.100	101.1125
7.133	101.1139
7.167	101.1150
7.200	101.1161
7.233	101.1165
7.267	101.1164
7.300	101.1168
7.333	101.1176
7.367	101.1181
7.400	101.1180
7.433	101.1177
7.467	101.1172
7.500	101.1167
7.533	101.1160
7.567	101.1150
7.600	101.1137
7.633	101.1135
7.667	101.1114
7.700	101.1084
7.733	101.1054
7.767	101.1029
7.800	101.1009
7.833	101.0990
7.867	101.0969
7.900	101.0946
7.933	101.0918
7.967	101.0889
8.000	101.0860
8.033	101.0824
8.067	101.0795
8.100	101.0765
8.133	101.0726
8.167	101.0688
8.200	101.0652
8.233	101.0617
8.267	101.0576
8.300	101.0533
8.333	101.0492
8.367	101.0452
8.400	101.0406
8.433	101.0368
8.467	101.0321
8.500	101.0261
8.533	101.0207
8.567	101.0159
8.600	101.0114
8.633	101.0067
8.667	101.0019
8.700	100.9963
8.733	100.9905
8.767	100.9850
8.800	100.9793
8.833	100.9738
8.867	100.9672
8.900	100.9618
8.933	100.9569
8.967	100.9518
9.000	100.9462
9.033	100.9409
9.067	100.9368
9.100	100.9311
9.133	100.9242
9.167	100.9174
9.200	100.9124
9.233	100.9072
9.267	100.9013
9.300	100.8952
9.333	100.8894
9.367	100.8842
9.400	100.8789
9.433	100.8742
9.467	100.8688
9.500	100.8637
9.533	100.8584
9.567	100.8527
9.600	100.8467
9.633	100.8405
9.667	100.8350
9.700	100.8303
9.733	100.8250
9.767	100.8194
9.800	100.8129
9.833	100.8069
9.867	100.8012
9.900	100.7958
9.933	100.7903
9.967	100.7847
10.000	100.7794
10.033	100.7738
10.067	100.7677
10.100	100.7613
10.133	100.7559
10.167	100.7504
10.200	100.7453
10.233	100.7398
10.267	100.7344
10.300	100.7296
10.333	100.7257
10.367	100.7220
10.400	100.7176
10.433	100.7137
10.467	100.7096
10.500	100.7050
10.533	100.7009
10.567	100.6968
10.600	100.6930
10.633	100.6898
10.667	100.6863
10.700	100.6833
10.733	100.6799
10.767	100.6766
10.800	100.6738
10.833	100.6698
10.867	100.6664
10.900	100.6630
10.933	100.6587
10.967	100.6547
11.000	100.6508
11.033	100.6468
11.067	100.6428
11.100	100.6390
11.133	100.6351
11.167	100.6306
11.200	100.6254
11.233	100.6205
11.267	100.6162
11.300	100.6118
11.333	100.6068
11.367	100.6017
11.400	100.5971
11.433	100.5925
11.467	100.5877
11.500	100.5811
11.533	100.5743
11.567	100.5680
11.600	100.5621
11.633	100.5560
11.667	100.5501
11.700	100.5437
11.733	100.5369
11.767	100.5308
11.800	100.5237
11.833	100.5170
11.867	100.5100
11.900	100.5027
11.933	100.4950
11.967	100.4872
12.000	100.4798
12.033	100.4717
12.067	100.4641
12.100	100.4567
12.133	100.4490
12.167	100.4410
12.200	100.4325
12.233	100.4247
12.267	100.4159
12.300	100.4071
12.333	100.3985
12.367	100.3895
12.400	100.3806
12.433	100.3723
12.467	100.3641
12.500	100.3554
12.533	100.3465
12.567	100.3375
12.600	100.3290
12.633	100.3204
12.667	100.3117
12.700	100.3030
12.733	100.2946
12.767	100.2861
12.800	100.2774
12.833	100.2691
12.867	100.2612
12.900	100.2527
12.933	100.2443
12.967	100.2368
13.000	100.2283
13.033	100.2206
13.067	100.2131
13.100	100.2055
13.133	100.1977
13.167	100.1890
13.200	100.1816
13.233	100.1744
13.267	100.1673
13.300	100.1598
13.333	100.1532
13.367	100.1464
13.400	100.1392
13.433	100.1321
13.467	100.1252
13.500	100.1183
13.533	100.1113
13.567	100.1041
13.600	100.0969
13.633	100.0901
13.667	100.0833
13.700	100.0766
13.733	100.0701
13.767	100.0630
13.800	100.0561
13.833	100.0497
13.867	100.0430
13.900	100.0356
13.933	100.0287
13.967	100.0221
14.000	100.0155
14.033	100.0081
14.067	100.0010
14.100	99.9943
14.133	99.9877
14.167	99.9806
14.200	99.9732
14.233	99.9656
14.267	99.9591
14.300	99.9523
14.333	99.9448
14.367	99.9370
14.400	99.9294
14.433	99.9224
14.467	99.9147
14.500	99.9066
14.533	99.8989
14.567	99.8912
14.600	99.8841
14.633	99.8765
14.667	99.8683
14.700	99.8607
14.733	99.8528
14.767	99.8444
14.800	99.8365
14.833	99.8292
14.867	99.8206
14.900	99.8125
14.933	99.8037
14.967	99.7951
15.000	99.7861
15.033	99.7779
15.067	99.7696
15.100	99.7616
15.133	99.7531
15.167	99.7438
15.200	99.7348
15.233	99.7257
15.267	99.7168
15.300	99.7085
15.333	99.6999
15.367	99.6905
15.400	99.6804
15.433	99.6711
15.467	99.6621
15.500	99.6533
15.533	99.6445
15.567	99.6357
15.600	99.6270
15.633	99.6176
15.667	99.6082
15.700	99.5987
15.733	99.5892
15.767	99.5803
15.800	99.5713
15.833	99.5628
15.867	99.5542
15.900	99.5458
15.933	99.5376
15.967	99.5295
16.000	99.5209
16.033	99.5131
16.067	99.5061
16.100	99.4980
16.133	99.4895
16.167	99.4814
16.200	99.4728
16.233	99.4642
16.267	99.4574
16.300	99.4507
16.333	99.4435
16.367	99.4366
16.400	99.4306
16.433	99.4239
16.467	99.4165
16.500	99.4099
16.533	99.4043
16.567	99.3987
16.600	99.3927
16.633	99.3866
16.667	99.3806
16.700	99.3751
16.733	99.3710
16.767	99.3659
16.800	99.3605
16.833	99.3559
16.867	99.3512
16.900	99.3464
16.933	99.3423
16.967	99.3386
17.000	99.3340
17.033	99.3304
17.067	99.3265
17.100	99.3227
17.133	99.3198
17.167	99.3170
17.200	99.3141
17.233	99.3113
17.267	99.3086
17.300	99.3056
17.333	99.3030
17.367	99.3005
17.400	99.2971
17.433	99.2941
17.467	99.2923
17.500	99.2910
17.533	99.2901
17.567	99.2873
17.600	99.2838
17.633	99.2805
17.667	99.2791
17.700	99.2789
17.733	99.2784
17.767	99.2767
17.800	99.2749
17.833	99.2735
17.867	99.2731
17.900	99.2717
17.933	99.2704
17.967	99.2698
18.000	99.2696
18.033	99.2688
18.067	99.2681
18.100	99.2675
18.133	99.2677
18.167	99.2677
18.200	99.2676
18.233	99.2662
18.267	99.2657
18.300	99.2663
18.333	99.2670
18.367	99.2673
18.400	99.2681
18.433	99.2684
18.467	99.2689
18.500	99.2699
18.533	99.2705
18.567	99.2713
18.600	99.2722
18.633	99.2723
18.667	99.2730
18.700	99.2749
18.733	99.2765
18.767	99.2782
18.800	99.2794
18.833	99.2806
18.867	99.2828
18.900	99.2852
18.933	99.2863
18.967	99.2875
19.000	99.2890
19.033	99.2910
19.067	99.2921
19.100	99.2938
19.133	99.2963
19.167	99.2984
19.200	99.3003
19.233	99.3031
19.267	99.3058
19.300	99.3079
19.333	99.3098
19.367	99.3118
19.400	99.3139
19.433	99.3156
19.467	99.3183
19.500	99.3209
19.533	99.3231
19.567	99.3266
19.600	99.3281
19.633	99.3302
19.667	99.3318
19.700	99.3345
19.733	99.3372
19.767	99.3398
19.800	99.3425
19.833	99.3449
19.867	99.3474
19.900	99.3492
19.933	99.3513
19.967	99.3538
20.000	99.3565
20.033	99.3591
20.067	99.3619
20.100	99.3641
20.133	99.3669
20.167	99.3690
20.200	99.3711
20.233	99.3731
20.267	99.3753
20.300	99.3775
20.333	99.3798
20.367	99.3819
20.400	99.3839
20.433	99.3862
20.467	99.3886
20.500	99.3903
20.533	99.3939
20.567	99.3957
20.600	99.3971
20.633	99.3992
20.667	99.3999
20.700	99.4005
20.733	99.4027
20.767	99.4056
20.800	99.4073
20.833	99.4089
20.867	99.4114
20.900	99.4134
20.933	99.4145
20.967	99.4158
21.000	99.4176
21.033	99.4197
21.067	99.4212
21.100	99.4225
21.133	99.4249
21.167	99.4266
21.200	99.4280
21.233	99.4296
21.267	99.4310
21.300	99.4322
21.333	99.4337
21.367	99.4350
21.400	99.4360
21.433	99.4374
21.467	99.4388
21.500	99.4398
21.533	99.4408
21.567	99.4427
21.600	99.4442
21.633	99.4455
21.667	99.4462
21.700	99.4467
21.733	99.4483
21.767	99.4501
21.800	99.4511
21.833	99.4520
21.867	99.4526
21.900	99.4537
21.933	99.4546
21.967	99.4554
22.000	99.4564
22.033	99.4572
22.067	99.4587
22.100	99.4604
22.133	99.4627
22.167	99.4632
22.200	99.4638
22.233	99.4645
22.267	99.4653
22.300	99.4663
22.333	99.4674
22.367	99.4682
22.400	99.4687
22.433	99.4694
22.467	99.4706
22.500	99.4717
22.533	99.4730
22.567	99.4736
22.600	99.4746
22.633	99.4756
22.667	99.4767
22.700	99.4776
22.733	99.4781
22.767	99.4792
22.800	99.4802
22.833	99.4814
22.867	99.4826
22.900	99.4835
22.933	99.4838
22.967	99.4843
23.000	99.4850
23.033	99.4864
23.067	99.4862
23.100	99.4874
23.133	99.4891
23.167	99.4898
23.200	99.4904
23.233	99.4910
23.267	99.4920
23.300	99.4936
23.333	99.4951
23.367	99.4957
23.400	99.4966
23.433	99.4972
23.467	99.4980
23.500	99.4988
23.533	99.4996
23.567	99.5003
23.600	99.5018
23.633	99.5030
23.667	99.5039
23.700	99.5048
23.733	99.5057
23.767	99.5063
23.800	99.5074
23.833	99.5083
23.867	99.5096
23.900	99.5105
23.933	99.5115
23.967	99.5133
24.000	99.5143
24.033	99.5149
24.067	99.5156
24.100	99.5162
24.133	99.5176
24.167	99.5189
24.200	99.5200
24.233	99.5206
24.267	99.5218
24.300	99.5229
24.333	99.5237
24.367	99.5253
24.400	99.5263
24.433	99.5272
24.467	99.5294
24.500	99.5302
24.533	99.5307
24.567	99.5323
24.600	99.5340
24.633	99.5341
24.667	99.5344
24.700	99.5354
24.733	99.5371
24.767	99.5390
24.800	99.5408
24.833	99.5419
24.867	99.5426
24.900	99.5440
24.933	99.5452
24.967	99.5458
25.000	99.5469
25.033	99.5482
25.067	99.5502
25.100	99.5519
25.133	99.5539
25.167	99.5551
25.200	99.5564
25.233	99.5581
25.267	99.5596
25.300	99.5608
25.333	99.5627
25.367	99.5638
25.400	99.5642
25.433	99.5652
25.467	99.5668
25.500	99.5688
25.533	99.5705
25.567	99.5728
25.600	99.5748
25.633	99.5760
25.667	99.5766
25.700	99.5778
25.733	99.5793
25.767	99.5814
25.800	99.5825
25.833	99.5837
25.867	99.5852
25.900	99.5870
25.933	99.5893
25.967	99.5917
26.000	99.5936
26.033	99.5945
26.067	99.5958
26.100	99.5976
26.133	99.5989
26.167	99.6006
26.200	99.6028
26.233	99.6048
26.267	99.6067
26.300	99.6082
26.333	99.6093
26.367	99.6111
26.400	99.6134
26.433	99.6147
26.467	99.6167
26.500	99.6185
26.533	99.6205
26.567	99.6223
26.600	99.6237
26.633	99.6254
26.667	99.6277
26.700	99.6296
26.733	99.6318
26.767	99.6343
26.800	99.6363
26.833	99.6381
26.867	99.6392
26.900	99.6409
26.933	99.6429
26.967	99.6450
27.000	99.6472
27.033	99.6496
27.067	99.6521
27.100	99.6541
27.133	99.6558
27.167	99.6577
27.200	99.6592
27.233	99.6607
27.267	99.6631
27.300	99.6658
27.333	99.6683
27.367	99.6714
27.400	99.6739
27.433	99.6756
27.467	99.6773
27.500	99.6803
27.533	99.6829
27.567	99.6847
27.600	99.6859
27.633	99.6875
27.667	99.6896
27.700	99.6922
27.733	99.6951
27.767	99.6974
27.800	99.6995
27.833	99.7014
27.867	99.7043
27.900	99.7070
27.933	99.7089
27.967	99.7114
28.000	99.7141
28.033	99.7168
28.067	99.7186
28.100	99.7206
28.133	99.7230
28.167	99.7254
28.200	99.7277
28.233	99.7305
28.267	99.7330
28.300	99.7357
28.333	99.7381
28.367	99.7404
28.400	99.7435
28.433	99.7469
28.467	99.7489
28.500	99.7504
28.533	99.7526
28.567	99.7548
28.600	99.7573
28.633	99.7601
28.667	99.7632
28.700	99.7651
28.733	99.7673
28.767	99.7691
28.800	99.7711
28.833	99.7739
28.867	99.7768
28.900	99.7801
28.933	99.7837
28.967	99.7870
29.000	99.7890
29.033	99.7908
29.067	99.7928
29.100	99.7951
29.133	99.7979
29.167	99.8011
29.200	99.8041
29.233	99.8064
29.267	99.8089
29.300	99.8109
29.333	99.8136
29.367	99.8159
29.400	99.8183
29.433	99.8210
29.467	99.8240
29.500	99.8275
29.533	99.8297
29.567	99.8325
29.600	99.8345
29.633	99.8371
29.667	99.8398
29.700	99.8424
29.733	99.8452
29.767	99.8479
29.800	99.8506
29.833	99.8539
29.867	99.8556
29.900	99.8575
29.933	99.8607
29.967	99.8643
30.000	99.8666
30.033	99.8698
30.067	99.8725
30.100	99.8748
30.133	99.8771
30.167	99.8794
30.200	99.8819
30.233	99.8850
30.267	99.8880
30.300	99.8907
30.333	99.8931
30.367	99.8954
30.400	99.8975
30.433	99.9002
30.467	99.9046
30.500	99.9071
30.533	99.9091
30.567	99.9117
30.600	99.9139
30.633	99.9159
30.667	99.9179
30.700	99.9206
30.733	99.9235
30.767	99.9263
30.800	99.9277
30.833	99.9304
30.867	99.9325
30.900	99.9348
30.933	99.9376
30.967	99.9405
31.000	99.9430
31.033	99.9456
31.067	99.9478
31.100	99.9503
31.133	99.9541
31.167	99.9562
31.200	99.9579
31.233	99.9597
31.267	99.9617
31.300	99.9641
31.333	99.9668
31.367	99.9692
31.400	99.9715
31.433	99.9740
31.467	99.9750
31.500	99.9767
31.533	99.9796
31.567	99.9826
31.600	99.9857
31.633	99.9886
31.667	99.9908
31.700	99.9927
31.733	99.9949
31.767	99.9964
31.800	99.9985
31.833	100.0011
31.867	100.0036
31.900	100.0064
31.933	100.0099
31.967	100.0121
32.000	100.0137
32.033	100.0150
32.067	100.0165
32.100	100.0180
32.133	100.0204
32.167	100.0226
32.200	100.0252
32.233	100.0288
32.267	100.0308
32.300	100.0309
32.333	100.0333
32.367	100.0359
32.400	100.0381
32.433	100.0403
32.467	100.0427
32.500	100.0450
32.533	100.0466
32.567	100.0487
32.600	100.0504
32.633	100.0521
32.667	100.0551
32.700	100.0578
32.733	100.0594
32.767	100.0612
32.800	100.0630
32.833	100.0656
32.867	100.0677
32.900	100.0698
32.933	100.0717
32.967	100.0741
33.000	100.0760
33.033	100.0778
33.067	100.0798
33.100	100.0818
33.133	100.0841
33.167	100.0867
33.200	100.0883
33.233	100.0899
33.267	100.0918
33.300	100.0939
33.333	100.0963
33.367	100.0989
33.400	100.1014
33.433	100.1040
33.467	100.1053
33.500	100.1066
33.533	100.1088
33.567	100.1106
33.600	100.1122
33.633	100.1143
33.667	100.1159
33.700	100.1182
33.733	100.1204
33.767	100.1228
33.800	100.1254
33.833	100.1268
33.867	100.1283
33.900	100.1302
33.933	100.1323
33.967	100.1351
34.000	100.1372
34.033	100.1383
34.067	100.1391
34.100	100.1407
34.133	100.1431
34.167	100.1463
34.200	100.1486
34.233	100.1496
34.267	100.1510
34.300	100.1528
34.333	100.1547
34.367	100.1571
34.400	100.1589
34.433	100.1602
34.467	100.1613
34.500	100.1634
34.533	100.1652
34.567	100.1676
34.600	100.1697
34.633	100.1711
34.667	100.1734
34.700	100.1757
34.733	100.1777
34.767	100.1794
34.800	100.1806
34.833	100.1825
34.867	100.1845
34.900	100.1865
34.933	100.1890
34.967	100.1910
35.000	100.1924
35.033	100.1932
35.067	100.1948
35.100	100.1968
35.133	100.1985
35.167	100.2008
35.200	100.2024
35.233	100.2045
35.267	100.2061
35.300	100.2088
35.333	100.2103
35.367	100.2122
35.400	100.2137
35.433	100.2151
35.467	100.2174
35.500	100.2197
35.533	100.2216
35.567	100.2238
35.600	100.2249
35.633	100.2264
35.667	100.2284
35.700	100.2306
35.733	100.2326
35.767	100.2344
35.800	100.2363
35.833	100.2379
35.867	100.2405
35.900	100.2442
35.933	100.2458
35.967	100.2463
36.000	100.2474
36.033	100.2489
36.067	100.2505
36.100	100.2521
36.133	100.2536
36.167	100.2551
36.200	100.2564
36.233	100.2574
36.267	100.2601
36.300	100.2619
36.333	100.2641
36.367	100.2660
36.400	100.2685
36.433	100.2718
36.467	100.2720
36.500	100.2731
36.533	100.2751
36.567	100.2771
36.600	100.2787
36.633	100.2801
36.667	100.2814
36.700	100.2829
36.733	100.2844
36.767	100.2855
36.800	100.2879
36.833	100.2898
36.867	100.2920
36.900	100.2946
36.933	100.2954
36.967	100.2966
37.000	100.2987
37.033	100.3003
37.067	100.3017
37.100	100.3031
37.133	100.3046
37.167	100.3063
37.200	100.3090
37.233	100.3112
37.267	100.3132
37.300	100.3147
37.333	100.3159
37.367	100.3167
37.400	100.3178
37.433	100.3189
37.467	100.3205
37.500	100.3227
37.533	100.3245
37.567	100.3269
37.600	100.3288
37.633	100.3304
37.667	100.3317
37.700	100.3326
37.733	100.3346
37.767	100.3357
37.800	100.3375
37.833	100.3395
37.867	100.3415
37.900	100.3437
37.933	100.3451
37.967	100.3469
38.000	100.3480
38.033	100.3499
38.067	100.3511
38.100	100.3523
38.133	100.3541
38.167	100.3562
38.200	100.3579
38.233	100.3597
38.267	100.3623
38.300	100.3636
38.333	100.3646
38.367	100.3668
38.400	100.3679
38.433	100.3687
38.467	100.3705
38.500	100.3723
38.533	100.3741
38.567	100.3757
38.600	100.3772
38.633	100.3798
38.667	100.3813
38.700	100.3822
38.733	100.3837
38.767	100.3850
38.800	100.3864
38.833	100.3880
38.867	100.3903
38.900	100.3920
38.933	100.3935
38.967	100.3951
39.000	100.3971
39.033	100.3988
39.067	100.4002
39.100	100.4020
39.133	100.4037
39.167	100.4052
39.200	100.4070
39.233	100.4087
39.267	100.4111
39.300	100.4122
39.333	100.4132
39.367	100.4142
39.400	100.4157
39.433	100.4175
39.467	100.4193
39.500	100.4215
39.533	100.4236
39.567	100.4253
39.600	100.4258
39.633	100.4266
39.667	100.4274
39.700	100.4292
39.733	100.4316
39.767	100.4337
39.800	100.4352
39.833	100.4372
39.867	100.4390
39.900	100.4398
39.933	100.4411
39.967	100.4425
40.000	100.4443
40.033	100.4459
40.067	100.4481
40.100	100.4500
40.133	100.4515
40.167	100.4524
40.200	100.4538
40.233	100.4543
40.267	100.4558
40.300	100.4577
40.333	100.4588
40.367	100.4603
40.400	100.4622
40.433	100.4638
40.467	100.4656
40.500	100.4668
40.533	100.4688
40.567	100.4706
40.600	100.4720
40.633	100.4735
40.667	100.4753
40.700	100.4768
40.733	100.4783
40.767	100.4797
40.800	100.4807
40.833	100.4826
40.867	100.4851
40.900	100.4860
40.933	100.4870
40.967	100.4883
41.000	100.4895
41.033	100.4910
41.067	100.4926
41.100	100.4943
41.133	100.4958
41.167	100.4974
41.200	100.4998
41.233	100.5007
41.267	100.5011
41.300	100.5024
41.333	100.5035
41.367	100.5045
41.400	100.5068
41.433	100.5089
41.467	100.5102
41.500	100.5114
41.533	100.5130
41.567	100.5156
41.600	100.5172
41.633	100.5173
41.667	100.5185
41.700	100.5191
41.733	100.5209
41.767	100.5223
41.800	100.5242
41.833	100.5268
41.867	100.5278
41.900	100.5281
41.933	100.5296
41.967	100.5304
42.000	100.5313
42.033	100.5329
42.067	100.5351
42.100	100.5371
42.133	100.5382
42.167	100.5395
42.200	100.5405
42.233	100.5420
42.267	100.5429
42.300	100.5441
42.333	100.5455
42.367	100.5471
42.400	100.5492
42.433	100.5511
42.467	100.5529
42.500	100.5541
42.533	100.5552
42.567	100.5559
42.600	100.5574
42.633	100.5586
42.667	100.5599
42.700	100.5617
42.733	100.5632
42.767	100.5648
42.800	100.5665
42.833	100.5680
42.867	100.5692
42.900	100.5704
42.933	100.5723
42.967	100.5742
43.000	100.5753
43.033	100.5764
43.067	100.5780
43.100	100.5791
43.133	100.5804
43.167	100.5814
43.200	100.5819
43.233	100.5833
43.267	100.5850
43.300	100.5865
43.333	100.5877
43.367	100.5894
43.400	100.5908
43.433	100.5924
43.467	100.5939
43.500	100.5949
43.533	100.5960
43.567	100.5976
43.600	100.5994
43.633	100.6015
43.667	100.6033
43.700	100.6042
43.733	100.6056
43.767	100.6069
43.800	100.6077
43.833	100.6080
43.867	100.6091
43.900	100.6108
43.933	100.6133
43.967	100.6148
44.000	100.6158
44.033	100.6168
44.067	100.6182
44.100	100.6198
44.133	100.6203
44.167	100.6214
44.200	100.6228
44.233	100.6247
44.267	100.6265
44.300	100.6280
44.333	100.6291
44.367	100.6304
44.400	100.6319
44.433	100.6340
44.467	100.6356
44.500	100.6363